trial,presentation_startTime,presentation_duration,prefeedback_startTime,prefeedback_duration,feedback_startTime,feedback_duration,fixation_startTime,fixation_duration,presentation_object1_positionX,presentation_object1_contrastValue,presentation_object2_positionX,presentation_object2_contrastValue,feedback_object1_color,trialValue,presentation_responseTime,presentation_response,presentation_touchPositionX,presentation_touchPositionY,respondedInTime,correct
1,41.3168,-56966.9863,-56925.6695,56968.9204,43.2509,0.3001,43.5510,0.3668,275,0.0167,-275,0.0196,1;0;0,0,43.1722,1.0,469.0,-162.0,1,0
2,43.9178,-56969.5874,-56925.6695,56970.0876,44.4180,0.3001,44.7182,0.3668,-275,0.2,275,0.75,0;0.5;0,1,44.3311,1.0,471.0,-176.0,1,1
3,45.0850,-56970.7545,-56925.6695,56971.3381,45.6686,0.3001,45.9687,0.3668,275,0.2,-275,0.2235,0;0.5;0,0,45.5900,0.0,-414.0,-142.0,1,1
4,46.3355,-56972.0050,-56925.6695,56972.4719,46.8023,0.3001,47.1025,0.3668,275,0.0088,-275,0.0759,0;0.5;0,0,46.7155,0.0,-439.0,-139.0,1,1
5,47.4693,-56973.1388,-56925.6695,56974.6728,49.0032,0.3001,49.3034,0.3668,-275,0,275,0.001,1;0;0,1,48.9246,0.0,-423.0,-140.0,1,0
6,49.6702,-56975.3397,-56925.6695,56977.2238,51.5543,0.3001,51.8544,0.3668,275,0.0088,-275,0.017,0;0.5;0,0,51.4757,0.0,-422.0,-138.0,1,1
7,52.2212,-56977.8907,-56925.6695,56978.9412,53.2716,0.3001,53.5718,0.3668,275,0.45,-275,0.5171,1;0;0,0,53.1846,1.0,453.0,-169.0,1,0
8,53.9386,-56979.6081,-56925.6695,56983.4430,57.7735,0.3001,58.0736,0.3668,275,0.0088,-275,0.0117,1;0;0,0,57.6949,1.0,512.0,-167.0,1,0
9,58.4404,-56984.1099,-56925.6695,56984.7769,59.1073,0.3001,59.4075,0.3668,-275,0,275,0.1921,0;0.5;0,1,59.0289,1.0,511.0,-159.0,1,1
10,59.7743,-56985.4438,-56925.6695,56985.8440,60.1744,0.3001,60.4746,0.3668,275,0.0088,-275,0.0759,0;0.5;0,0,60.0959,0.0,-451.0,-135.0,1,1
11,60.8414,-56986.5109,-56925.6695,56987.1111,61.4416,0.3001,61.7418,0.3668,-275,0.0167,275,0.0402,0;0.5;0,1,61.3631,1.0,504.0,-164.0,1,1
12,62.1086,-56987.7781,-56925.6695,56988.3950,62.7255,0.3001,63.0256,0.3668,-275,0.0088,275,0.0759,0;0.5;0,1,62.6470,1.0,510.0,-161.0,1,1
13,63.3924,-56989.0619,-56925.6695,56990.1791,64.5095,0.3001,64.8097,0.3668,-275,0.05,275,0.0735,1;0;0,1,64.4309,0.0,-468.0,-131.0,1,0
14,65.1765,-56990.8460,-56925.6695,56991.4796,65.8101,0.3001,66.1102,0.3668,275,0.0088,-275,0.2009,0;0.5;0,0,65.7316,0.0,-473.0,-133.0,1,1
15,66.4770,-56992.1465,-56925.6695,56994.2640,68.5945,0.3001,68.8947,0.3668,-275,0,275,0.0029,1;0;0,1,68.5160,0.0,-464.0,-131.0,1,0
16,69.2615,-56994.9310,-56925.6695,56995.6479,69.9784,0.3001,70.2786,0.3668,275,0.0167,-275,0.2088,0;0.5;0,0,69.8914,0.0,-453.0,-138.0,1,1
17,70.6454,-56996.3149,-56925.6695,56996.9318,71.2623,0.3001,71.5624,0.3668,-275,0.0167,275,0.0838,0;0.5;0,1,71.1755,1.0,500.0,-167.0,1,1
18,71.9292,-56997.5987,-56925.6695,56999.2994,73.6299,0.3001,73.9300,0.3668,-275,0.45,275,0.4735,1;0;0,1,73.5515,0.0,-450.0,-136.0,1,0
19,74.2969,-56999.9664,-56925.6695,57002.4340,76.7645,0.3001,77.0646,0.3668,-275,0,275,0.0029,0;0.5;0,1,76.6861,1.0,509.0,-162.0,1,1
20,77.4315,-57003.1010,-56925.6695,57004.0514,78.3818,0.3001,78.6820,0.3668,275,0.2,-275,0.2671,1;0;0,0,78.3034,1.0,490.0,-161.0,1,0
21,79.0488,-57004.7183,-56925.6695,57006.7858,81.1163,0.3001,81.4164,0.3668,275,0.0167,-275,0.0177,0;0.5;0,0,81.0378,0.0,-441.0,-135.0,1,1
22,81.7832,-57007.4527,-56925.6695,57008.2030,82.5335,0.3001,82.8337,0.3668,275,0.05,-275,0.2421,0;0.5;0,0,82.4550,0.0,-444.0,-137.0,1,1
23,83.2005,-57008.8700,-56925.6695,57011.1876,85.5181,0.3001,85.8182,0.3668,-275,0,275,0.001,1;0;0,1,85.4311,0.0,-401.0,-148.0,1,0
24,86.1850,-57011.8545,-56925.6695,57012.3547,86.6852,0.3001,86.9853,0.3668,-275,0.0088,275,0.0759,0;0.5;0,1,86.5984,1.0,477.0,-167.0,1,1
25,87.3522,-57013.0217,-56925.6695,57013.5886,87.9191,0.3001,88.2192,0.3668,275,0.2,-275,0.75,0;0.5;0,0,87.8403,0.0,-426.0,-139.0,1,1
26,88.5860,-57014.2555,-56925.6695,57015.4727,89.8032,0.3001,90.1033,0.3668,275,0.0167,-275,0.0249,0;0.5;0,0,89.7246,0.0,-440.0,-138.0,1,1
27,90.4701,-57016.1396,-56925.6695,57017.6569,91.9874,0.3001,92.2875,0.3668,275,0.45,-275,0.6421,0;0.5;0,0,91.9005,0.0,-399.0,-146.0,1,1
28,92.6543,-57018.3238,-56925.6695,57021.7586,96.0890,0.3001,96.3892,0.3668,275,0.0167,-275,0.0249,0;0.5;0,0,96.0022,0.0,-423.0,-137.0,1,1
29,96.7560,-57022.4255,-56925.6695,57023.3925,97.7230,0.3001,98.0232,0.3668,275,0.05,-275,0.2421,0;0.5;0,0,97.6362,0.0,-430.0,-133.0,1,1
30,98.3900,-57024.0595,-56925.6695,57024.7764,99.1069,0.3001,99.4071,0.3668,275,0.0088,-275,0.2009,0;0.5;0,0,99.0200,0.0,-450.0,-129.0,1,1
31,99.7739,-57025.4434,-56925.6695,57027.5109,101.8414,0.3001,102.1415,0.3668,-275,0.0088,275,0.017,1;0;0,1,101.7628,0.0,-442.0,-131.0,1,0
32,102.5083,-57028.1778,-56925.6695,57029.5117,103.8422,0.3001,104.1423,0.3668,275,0.0167,-275,0.0402,0;0.5;0,0,103.7552,0.0,-405.0,-139.0,1,1
33,104.5091,-57030.1786,-56925.6695,57031.1957,105.5262,0.3001,105.8263,0.3668,275,0.45,-275,0.6421,0;0.5;0,0,105.4476,0.0,-409.0,-139.0,1,1
34,106.1931,-57031.8627,-56925.6695,57033.2299,107.5604,0.3001,107.8605,0.3668,-275,0.0088,275,0.0759,0;0.5;0,1,107.4735,1.0,464.0,-162.0,1,1
35,108.2273,-57033.8968,-56925.6695,57034.8972,109.2277,0.3001,109.5278,0.3668,275,0.0088,-275,0.0117,0;0.5;0,0,109.1408,0.0,-416.0,-137.0,1,1
36,109.8946,-57035.5642,-56925.6695,57036.3978,110.7283,0.3001,111.0284,0.3668,-275,0.0088,275,0.2009,0;0.5;0,1,110.6413,1.0,458.0,-164.0,1,1
37,111.3953,-57037.0648,-56925.6695,57037.6817,112.0122,0.3001,112.3123,0.3668,275,0,-275,0.0235,0;0.5;0,0,111.9253,0.0,-442.0,-131.0,1,1
38,112.6791,-57038.3486,-56925.6695,57039.3657,113.6962,0.3001,113.9963,0.3668,275,0.2,-275,0.2671,1;0;0,0,113.6093,1.0,451.0,-164.0,1,0
39,114.3631,-57040.0326,-56925.6695,57040.6829,115.0134,0.3001,115.3135,0.3668,275,0,-275,0.0671,0;0.5;0,0,114.9266,0.0,-450.0,-132.0,1,1
40,115.6803,-57041.3498,-56925.6695,57042.2002,116.5307,0.3001,116.8308,0.3668,275,0.05,-275,0.2421,0;0.5;0,0,116.4438,0.0,-439.0,-133.0,1,1
41,117.1976,-57042.8671,-56925.6695,57044.2010,118.5315,0.3001,118.8316,0.3668,-275,0.05,275,0.0582,0;0.5;0,1,118.4446,1.0,452.0,-161.0,1,1
42,119.1984,-57044.8679,-56925.6695,57047.6024,121.9329,0.3001,122.2330,0.3668,275,0.0088,-275,0.0117,0;0.5;0,0,121.8460,0.0,-423.0,-136.0,1,1
43,122.5998,-57048.2693,-56925.6695,57049.7199,124.0504,0.3001,124.3505,0.3668,275,0.05,-275,0.1171,0;0.5;0,0,123.9718,0.0,-431.0,-134.0,1,1
44,124.7173,-57050.3868,-56925.6695,57051.0038,125.3342,0.3001,125.6344,0.3668,-275,0,275,0.1921,0;0.5;0,1,125.2474,1.0,465.0,-158.0,1,1
45,126.0012,-57051.6707,-56925.6695,57052.3543,126.6848,0.3001,126.9849,0.3668,275,0.2,-275,0.3921,0;0.5;0,0,126.5980,0.0,-421.0,-139.0,1,1
46,127.3517,-57053.0212,-56925.6695,57054.4552,128.7857,0.3001,129.0858,0.3668,275,0.05,-275,0.1171,0;0.5;0,0,128.7070,0.0,-428.0,-134.0,1,1
47,129.4526,-57055.1221,-56925.6695,57055.9058,130.2362,0.3001,130.5364,0.3668,275,0.2,-275,1,0;0.5;0,0,130.1576,0.0,-437.0,-137.0,1,1
48,130.9032,-57056.5727,-56925.6695,57057.4731,131.8035,0.3001,132.1037,0.3668,275,0.0167,-275,0.0196,1;0;0,0,131.7165,1.0,460.0,-157.0,1,0
49,132.4705,-57058.1400,-56925.6695,57059.3238,133.6543,0.3001,133.9544,0.3668,-275,0.2,275,0.2082,1;0;0,1,133.5674,0.0,-435.0,-133.0,1,0
50,134.3212,-57059.9907,-56925.6695,57060.7244,135.0549,0.3001,135.3550,0.3668,-275,0.05,275,0.0582,0;0.5;0,1,134.9680,1.0,456.0,-159.0,1,1
51,135.7218,-57061.3913,-56925.6695,57062.4584,136.7889,0.3001,137.0890,0.3668,275,0.05,-275,0.0735,1;0;0,0,136.7103,1.0,465.0,-159.0,1,0
52,137.4558,-57063.1254,-56925.6695,57063.7923,138.1228,0.3001,138.4229,0.3668,275,0,-275,0.0235,0;0.5;0,0,138.0442,0.0,-437.0,-133.0,1,1
53,138.7897,-57064.4592,-56925.6695,57066.7768,141.1073,0.3001,141.4074,0.3668,-275,0,275,0.001,1;0;0,1,141.0204,0.0,-406.0,-141.0,1,0
54,141.7743,-57067.4438,-56925.6695,57069.1278,143.4583,0.3001,143.7584,0.3668,-275,0,275,0.0082,0;0.5;0,1,143.3713,1.0,452.0,-159.0,1,1
55,144.1252,-57069.7947,-56925.6695,57070.3616,144.6921,0.3001,144.9922,0.3668,-275,0.05,275,0.6,0;0.5;0,1,144.6135,1.0,453.0,-160.0,1,1
56,145.3590,-57071.0286,-56925.6695,57071.6788,146.0093,0.3001,146.3094,0.3668,275,0.2,-275,0.3921,0;0.5;0,0,145.9225,0.0,-413.0,-143.0,1,1
57,146.6762,-57072.3458,-56925.6695,57073.6296,147.9601,0.3001,148.2602,0.3668,-275,0,275,0.001,1;0;0,1,147.8731,0.0,-406.0,-144.0,1,0
58,148.6270,-57074.2966,-56925.6695,57074.8635,149.1939,0.3001,149.4941,0.3668,-275,0.05,275,0.6,0;0.5;0,1,149.1155,1.0,447.0,-163.0,1,1
59,149.8609,-57075.5304,-56925.6695,57076.2473,150.5778,0.3001,150.8780,0.3668,-275,0.05,275,0.2421,0;0.5;0,1,150.4992,1.0,468.0,-160.0,1,1
60,151.2448,-57076.9143,-56925.6695,57077.5312,151.8617,0.3001,152.1618,0.3668,-275,0.2,275,0.2235,1;0;0,1,151.7831,0.0,-432.0,-139.0,1,0
61,152.5286,-57078.1981,-56925.6695,57079.9322,154.2627,0.3001,154.5628,0.3668,275,0.0167,-275,0.0249,1;0;0,0,154.1840,1.0,457.0,-156.0,1,0
62,154.9296,-57080.5991,-56925.6695,57081.1160,155.4465,0.3001,155.7466,0.3668,-275,0.2,275,0.2671,1;0;0,1,155.3679,0.0,-436.0,-134.0,1,0
63,156.1134,-57081.7829,-56925.6695,57083.7004,158.0309,0.3001,158.3310,0.3668,-275,0.05,275,0.1171,1;0;0,1,157.9441,0.0,-430.0,-137.0,1,0
64,158.6978,-57084.3673,-56925.6695,57085.0676,159.3981,0.3001,159.6982,0.3668,-275,0.0167,275,0.0177,0;0.5;0,1,159.3111,1.0,445.0,-157.0,1,1
65,160.0650,-57085.7345,-56925.6695,57088.3022,162.6327,0.3001,162.9328,0.3668,275,0.0088,-275,0.0098,1;0;0,0,162.5542,1.0,433.0,-157.0,1,0
66,163.2997,-57088.9692,-56925.6695,57090.9033,165.2338,0.3001,165.5339,0.3710,-275,0,275,0.0082,0;0.5;0,1,165.1468,1.0,429.0,-162.0,1,1
67,165.9049,-57091.5744,-56925.6695,57093.2209,167.5514,0.3001,167.8515,0.3668,-275,0.0088,275,0.0098,0;0.5;0,1,167.4727,1.0,437.0,-161.0,1,1
68,168.2183,-57093.8878,-56925.6695,57095.3718,169.7023,0.3001,170.0024,0.3668,275,0.2,-275,0.2235,0;0.5;0,0,169.6237,0.0,-417.0,-138.0,1,1
69,170.3692,-57096.0387,-56925.6695,57098.4897,172.8202,0.3001,173.1203,0.3668,275,0.0167,-275,0.2088,0;0.5;0,0,172.7334,0.0,-407.0,-140.0,1,1
70,173.4871,-57099.1566,-56925.6695,57100.4072,174.7376,0.3001,175.0378,0.3668,275,0.05,-275,0.0735,0;0.5;0,0,174.6590,0.0,-399.0,-144.0,1,1
71,175.4046,-57101.0741,-56925.6695,57103.1083,177.4387,0.3001,177.7389,0.3668,-275,0.0167,275,0.0249,0;0.5;0,1,177.3601,1.0,424.0,-157.0,1,1
72,178.1057,-57103.7752,-56925.6695,57105.0757,179.4062,0.3001,179.7063,0.3668,-275,0.0088,275,0.2009,0;0.5;0,1,179.3276,1.0,431.0,-162.0,1,1
73,180.0731,-57105.7427,-56925.6695,57110.0777,184.4082,0.3001,184.7084,0.3668,275,0.2,-275,0.2082,0;0.5;0,0,184.2630,0.0,-616.0,-805.0,1,1
74,185.0752,-57110.7447,-56925.6695,57113.8459,188.1764,0.3001,188.4766,0.3668,275,0.0088,-275,0.0117,0;0.5;0,0,188.0895,0.0,-477.0,-125.0,1,1
75,188.8434,-57114.5129,-56925.6695,57115.2799,189.6103,0.3001,189.9105,0.3668,275,0.2,-275,0.3921,0;0.5;0,0,189.5317,0.0,-630.0,-808.0,1,1
76,190.2773,-57115.9468,-56925.6695,57117.1139,191.4444,0.3001,191.7445,0.3668,275,0.05,-275,0.1171,0;0.5;0,0,191.3576,0.0,-633.0,-805.0,1,1
77,192.1114,-57117.7809,-56925.6695,57118.3311,192.6616,0.3001,192.9617,0.3668,-275,0.0167,275,0.2088,0;0.5;0,1,192.5747,1.0,450.0,-159.0,1,1
78,193.3285,-57118.9980,-56925.6695,57119.9818,194.3123,0.3001,194.6124,0.3668,275,0.0167,-275,0.0402,0;0.5;0,0,194.2254,0.0,-471.0,-118.0,1,1
79,194.9792,-57120.6487,-56925.6695,57121.2656,195.5961,0.3001,195.8962,0.3668,-275,0.0167,275,0.2088,0;0.5;0,1,195.5092,1.0,457.0,-157.0,1,1
80,196.2630,-57121.9326,-56925.6695,57122.6829,197.0133,0.3001,197.3135,0.3668,-275,0.2,275,0.3921,0;0.5;0,1,196.9265,1.0,465.0,-157.0,1,1
81,197.6803,-57123.3498,-56925.6695,57124.1168,198.4473,0.3001,198.7474,0.3668,275,0,-275,0.1921,0;0.5;0,0,198.3604,0.0,-479.0,-120.0,1,1
82,199.1142,-57124.7837,-56925.6695,57127.8516,202.1821,0.3001,202.4822,0.3668,-275,0.0088,275,0.0098,0;0.5;0,1,202.0951,1.0,471.0,-161.0,1,1
83,202.8490,-57128.5186,-56925.6695,57129.1522,203.4826,0.3001,203.7828,0.3668,275,0.05,-275,0.6,0;0.5;0,0,203.4042,0.0,-459.0,-123.0,1,1
84,204.1496,-57129.8191,-56925.6695,57134.0375,208.3680,0.3001,208.6681,0.3668,275,0.0167,-275,0.0196,0;0.5;0,0,208.2893,0.0,-447.0,-124.0,1,1
85,209.0349,-57134.7044,-56925.6695,57137.4055,211.7360,0.3001,212.0361,0.3668,275,0.0088,-275,0.0098,0;0.5;0,0,211.6575,0.0,-446.0,-124.0,1,1
86,212.4029,-57138.0724,-56925.6695,57140.5068,214.8372,0.3001,215.1374,0.3668,275,0.0088,-275,0.0323,0;0.5;0,0,214.7503,0.0,-452.0,-124.0,1,1
87,215.5042,-57141.1737,-56925.6695,57141.9073,216.2378,0.3001,216.5379,0.3668,-275,0.2,275,0.3921,0;0.5;0,1,216.1510,1.0,460.0,-150.0,1,1
88,216.9048,-57142.5743,-56925.6695,57143.3579,217.6884,0.3001,217.9885,0.3668,-275,0.45,275,1,0;0.5;0,1,217.6098,1.0,472.0,-150.0,1,1
89,218.3553,-57144.0249,-56925.6695,57144.9586,219.2891,0.3001,219.5892,0.3668,275,0.45,-275,0.4582,1;0;0,0,219.2022,1.0,463.0,-153.0,1,0
90,219.9560,-57145.6255,-56925.6695,57146.2424,220.5729,0.3001,220.8730,0.3668,-275,0.2,275,0.3921,1;0;0,1,220.4858,0.0,-444.0,-123.0,1,0
91,221.2398,-57146.9094,-56925.6695,57147.7264,222.0568,0.3001,222.3570,0.3668,275,0.0167,-275,0.2088,0;0.5;0,0,221.9699,0.0,-433.0,-129.0,1,1
92,222.7238,-57148.3933,-56925.6695,57149.8105,224.1410,0.3001,224.4411,0.3668,-275,0.45,275,0.4582,1;0;0,1,224.0542,0.0,-442.0,-129.0,1,0
93,224.8080,-57150.4775,-56925.6695,57153.1619,227.4924,0.3001,227.7925,0.3668,275,0,-275,0.0082,1;0;0,0,227.4138,1.0,450.0,-154.0,1,0
94,228.1593,-57153.8288,-56925.6695,57154.3624,228.6929,0.3001,228.9930,0.3668,-275,0.2,275,0.75,0;0.5;0,1,228.6061,1.0,443.0,-161.0,1,1
95,229.3598,-57155.0293,-56925.6695,57155.8797,230.2102,0.3001,230.5103,0.3668,275,0.45,-275,0.4582,0;0.5;0,0,230.1233,0.0,-415.0,-143.0,1,1
96,230.8771,-57156.5466,-56925.6695,57158.0639,232.3944,0.3001,232.6945,0.3668,-275,0.2,275,0.2235,0;0.5;0,1,232.3158,1.0,455.0,-157.0,1,1
97,233.0613,-57158.7308,-56925.6695,57160.9651,235.2955,0.3001,235.5957,0.3668,275,0.0167,-275,0.0196,1;0;0,0,235.2170,1.0,452.0,-153.0,1,0
98,235.9625,-57161.6320,-56925.6695,57163.2660,237.5965,0.3001,237.8966,0.3668,-275,0.2,275,0.3921,0;0.5;0,1,237.5178,1.0,431.0,-162.0,1,1
99,238.2634,-57163.9329,-56925.6695,57164.6666,238.9970,0.3001,239.2972,0.3668,-275,0.45,275,0.6421,0;0.5;0,1,238.9100,1.0,437.0,-161.0,1,1
100,239.6640,-57165.3335,-56925.6695,57167.0842,241.4147,0.3001,241.7148,0.3752,275,0,-275,0.001,0;0.5;0,0,241.3279,0.0,-413.0,-138.0,1,1
101,242.0900,-57167.7595,-56925.6695,57169.6603,243.9907,0.3001,244.2909,0.3668,-275,0.0088,275,0.0117,1;0;0,1,243.8954,0.0,-425.0,-137.0,1,0
102,244.6577,-57170.3272,-56925.6695,57172.4781,246.8086,0.3001,247.1087,0.3668,-275,0,275,0.0235,0;0.5;0,1,246.7133,1.0,431.0,-161.0,1,1
103,247.4755,-57173.1450,-56925.6695,57174.7790,249.1095,0.3001,249.4096,0.3668,275,0,-275,0.0029,1;0;0,0,249.0143,1.0,442.0,-153.0,1,0
104,249.7764,-57175.4459,-56925.6695,57176.8965,251.2270,0.3001,251.5271,0.3668,275,0.0088,-275,0.0098,0;0.5;0,0,251.1401,0.0,-423.0,-134.0,1,1
105,251.8939,-57177.5635,-56925.6695,57180.1979,254.5283,0.3001,254.8285,0.3668,-275,0.0088,275,0.0117,1;0;0,1,254.4330,0.0,-424.0,-133.0,1,0
106,255.1953,-57180.8648,-56925.6695,57181.4859,255.8164,0.2960,256.1123,0.3668,275,0.45,-275,1,0;0.5;0,0,255.7253,0.0,-403.0,-139.0,1,1
107,256.4791,-57182.1487,-56925.6695,57188.0344,262.3649,0.3001,262.6650,0.3668,-275,0.0167,275,0.0249,0;0.5;0,1,262.2696,1.0,431.0,-159.0,1,1
108,263.0318,-57188.7013,-56925.6695,57191.2523,265.5828,0.3001,265.8830,0.3668,-275,0.0167,275,0.0402,0;0.5;0,1,265.4875,1.0,442.0,-152.0,1,1
109,266.2498,-57191.9193,-56925.6695,57193.7367,268.0672,0.3001,268.3673,0.3668,-275,0.0088,275,0.0759,0;0.5;0,1,267.9719,1.0,440.0,-153.0,1,1
110,268.7341,-57194.4036,-56925.6695,57196.6212,270.9517,0.3001,271.2518,0.3668,275,0,-275,0.0082,1;0;0,0,270.8647,1.0,433.0,-150.0,1,0
111,271.6186,-57197.2881,-56925.6695,57197.4382,271.7687,0.3001,272.0688,0.3668,275,0.45,-275,0.5171,0;0.5;0,0,271.6818,0.0,-400.0,-138.0,1,1
112,272.4356,-57198.1051,-56925.6695,57200.9063,275.2367,0.3001,275.5369,0.3668,275,0.0167,-275,0.0196,0;0.5;0,0,275.1498,0.0,-408.0,-149.0,1,1
113,275.9037,-57201.5732,-56925.6695,57205.3914,279.7219,0.3001,280.0220,0.3668,-275,0.2,275,0.2235,0;0.5;0,1,279.6350,1.0,519.0,-167.0,1,1
114,280.3888,-57206.0583,-56925.6695,57208.0592,282.3896,0.3001,282.6898,0.3668,275,0.05,-275,0.0529,0;0.5;0,0,282.2943,0.0,-500.0,-129.0,1,1
115,283.0566,-57208.7261,-56925.6695,57209.4806,283.8111,0.3001,284.1112,0.3626,275,0.2,-275,0.75,0;0.5;0,0,283.7116,0.0,-500.0,-129.0,1,1
116,284.4738,-57210.1433,-56925.6695,57213.1446,287.4750,0.3001,287.7752,0.3668,-275,0.0088,275,0.017,0;0.5;0,1,287.3884,1.0,485.0,-162.0,1,1
117,288.1420,-57213.8115,-56925.6695,57214.5785,288.9090,0.3001,289.2091,0.3668,275,0.05,-275,0.2421,0;0.5;0,0,288.8138,0.0,-508.0,-128.0,1,1
118,289.5759,-57215.2454,-56925.6695,57216.0457,290.3762,0.3001,290.6763,0.3668,-275,0,275,0.1921,0;0.5;0,1,290.2809,1.0,538.0,-155.0,1,1
119,291.0432,-57216.7127,-56925.6695,57217.7464,292.0769,0.3001,292.3770,0.3668,275,0.05,-275,0.0529,1;0;0,0,291.9900,1.0,533.0,-145.0,1,0
120,292.7438,-57218.4134,-56925.6695,57219.0469,293.3774,0.3001,293.6776,0.3668,275,0.0088,-275,0.0759,0;0.5;0,0,293.2907,0.0,-518.0,-126.0,1,1
121,294.0444,-57219.7139,-56925.6695,57220.3808,294.7113,0.3001,295.0114,0.3668,-275,0.05,275,0.2421,0;0.5;0,1,294.6244,1.0,552.0,-147.0,1,1
122,295.3782,-57221.0478,-56925.6695,57221.7647,296.0952,0.3001,296.3953,0.3668,-275,0.2,275,0.75,0;0.5;0,1,296.0083,1.0,556.0,-151.0,1,1
123,296.7621,-57222.4317,-56925.6695,57223.3987,297.7292,0.3001,298.0293,0.3668,-275,0.0167,275,0.0402,0;0.5;0,1,297.6340,1.0,547.0,-153.0,1,1
124,298.3961,-57224.0656,-56925.6695,57224.8493,299.1798,0.3001,299.4799,0.3668,-275,0.2,275,0.2671,0;0.5;0,1,299.0846,1.0,532.0,-149.0,1,1
125,299.8467,-57225.5162,-56925.6695,57227.9839,302.3144,0.3001,302.6145,0.3668,275,0.05,-275,0.0582,1;0;0,0,302.2192,1.0,539.0,-148.0,1,0
126,302.9813,-57228.6508,-56925.6695,57229.3178,303.6483,0.3001,303.9484,0.3668,275,0.45,-275,0.4582,0;0.5;0,0,303.5614,0.0,-460.0,-135.0,1,1
127,304.3152,-57229.9847,-56925.6695,57231.0018,305.3323,0.3001,305.6324,0.3668,-275,0.05,275,0.1171,0;0.5;0,1,305.2370,1.0,540.0,-142.0,1,1
128,305.9992,-57231.6687,-56925.6695,57233.6695,308.0000,0.3001,308.3001,0.3668,-275,0.0167,275,0.0402,0;0.5;0,1,307.9049,1.0,542.0,-147.0,1,1
129,308.6670,-57234.3365,-56925.6695,57236.6541,310.9846,0.3001,311.2847,0.3668,-275,0,275,0.0671,0;0.5;0,1,310.8977,1.0,509.0,-147.0,1,1
130,311.6515,-57237.3210,-56925.6695,57239.4302,313.7607,0.3001,314.0608,0.3585,275,0,-275,0.0671,1;0;0,0,313.6571,1.0,514.0,-144.0,1,0
131,314.4193,-57240.0888,-56925.6695,57241.2059,315.5364,0.3001,315.8365,0.3668,275,0.0088,-275,0.0117,0;0.5;0,0,315.4495,0.0,-442.0,-141.0,1,1
132,316.2034,-57241.8729,-56925.6695,57242.9900,317.3205,0.3001,317.6206,0.3668,-275,0.0167,275,0.0177,0;0.5;0,1,317.2335,1.0,532.0,-147.0,1,1
133,317.9874,-57243.6569,-56925.6695,57244.8074,319.1379,0.3001,319.4380,0.3668,275,0.05,-275,0.0735,0;0.5;0,0,319.0427,0.0,-480.0,-129.0,1,1
134,319.8048,-57245.4743,-56925.6695,57246.3580,320.6885,0.3001,320.9886,0.3668,-275,0.45,275,0.5171,0;0.5;0,1,320.6015,1.0,540.0,-146.0,1,1
135,321.3554,-57247.0250,-56925.6695,57247.8586,322.1891,0.3001,322.4892,0.3668,-275,0.0088,275,0.0759,0;0.5;0,1,322.1022,1.0,528.0,-143.0,1,1
136,322.8560,-57248.5256,-56925.6695,57249.1258,323.4563,0.3001,323.7564,0.3668,275,0.0088,-275,0.0759,0;0.5;0,0,323.3610,0.0,-489.0,-128.0,1,1
137,324.1232,-57249.7927,-56925.6695,57251.7102,326.0407,0.3001,326.3408,0.3668,275,0.0088,-275,0.0098,1;0;0,0,325.9453,1.0,533.0,-136.0,1,0
138,326.7076,-57252.3771,-56925.6695,57253.0607,327.3912,0.3001,327.6913,0.3668,275,0.05,-275,0.1171,0;0.5;0,0,327.3044,0.0,-506.0,-124.0,1,1
139,328.0582,-57253.7277,-56925.6695,57254.9948,329.3253,0.3001,329.6255,0.3668,-275,0.0167,275,0.0177,1;0;0,1,329.2301,0.0,-510.0,-124.0,1,0
140,329.9923,-57255.6618,-56925.6695,57256.6455,330.9760,0.3001,331.2761,0.3668,-275,0.2,275,0.2671,0;0.5;0,1,330.8808,1.0,515.0,-141.0,1,1
141,331.6429,-57257.3125,-56925.6695,57258.1628,332.4933,0.3001,332.7934,0.3668,275,0.45,-275,0.4735,0;0.5;0,0,332.3981,0.0,-510.0,-126.0,1,1
142,333.1602,-57258.8297,-56925.6695,57259.8802,334.2106,0.3001,334.5108,0.3668,275,0.0167,-275,0.0402,1;0;0,0,334.1238,1.0,531.0,-138.0,1,0
143,334.8776,-57260.5471,-56925.6695,57261.2140,335.5445,0.3001,335.8446,0.3668,275,0.0088,-275,0.0323,0;0.5;0,0,335.4576,0.0,-512.0,-127.0,1,1
144,336.2115,-57261.8810,-56925.6695,57263.3316,337.6620,0.3001,337.9622,0.3668,-275,0,275,0.0082,1;0;0,1,337.5752,0.0,-513.0,-125.0,1,0
145,338.3290,-57263.9985,-56925.6695,57264.6488,338.9792,0.3001,339.2794,0.3668,-275,0.05,275,0.1171,0;0.5;0,1,338.8841,1.0,538.0,-139.0,1,1
146,339.6462,-57265.3157,-56925.6695,57267.1664,341.4969,0.3001,341.7971,0.3668,-275,0.0167,275,0.0249,0;0.5;0,1,341.4100,1.0,547.0,-142.0,1,1
147,342.1639,-57267.8334,-56925.6695,57268.9213,343.2518,0.3001,343.5519,0.3668,275,0.05,-275,0.0582,1;0;0,0,343.1524,1.0,534.0,-138.0,1,0
148,343.9187,-57269.5883,-56925.6695,57270.3219,344.6524,0.3001,344.9525,0.3668,275,0.2,-275,0.2082,0;0.5;0,0,344.5530,0.0,-513.0,-126.0,1,1
149,345.3193,-57270.9888,-56925.6695,57271.9225,346.2530,0.3001,346.5531,0.3626,-275,0.45,275,0.5171,1;0;0,1,346.1620,0.0,-513.0,-128.0,1,0
150,346.9158,-57272.5853,-56925.6695,57273.4357,347.7661,0.3001,348.0663,0.3668,275,0.45,-275,0.4582,1;0;0,0,347.6794,1.0,534.0,-142.0,1,0
151,348.4331,-57274.1026,-56925.6695,57275.4531,349.7836,0.3001,350.0837,0.3668,275,0.45,-275,0.5171,0;0.5;0,0,349.6967,0.0,-485.0,-133.0,1,1
152,350.4506,-57276.1201,-56925.6695,57277.6874,352.0179,0.3001,352.3180,0.3668,275,0.2,-275,0.2235,0;0.5;0,0,351.9310,0.0,-495.0,-131.0,1,1
153,352.6848,-57278.3543,-56925.6695,57281.1721,355.5026,0.3001,355.8027,0.3668,275,0,-275,0.001,0;0.5;0,0,355.4073,0.0,-481.0,-133.0,1,1
154,356.1695,-57281.8391,-56925.6695,57283.6898,358.0203,0.3001,358.3204,0.3668,275,0.0167,-275,0.0249,0;0.5;0,0,357.9335,0.0,-486.0,-132.0,1,1
155,358.6872,-57284.3567,-56925.6695,57285.6739,360.0044,0.3001,360.3046,0.3668,275,0.2,-275,0.2235,0;0.5;0,0,359.9174,0.0,-490.0,-133.0,1,1
156,360.6714,-57286.3409,-56925.6695,57287.7915,362.1220,0.3001,362.4221,0.3668,275,0.05,-275,0.1171,0;0.5;0,0,362.0267,0.0,-485.0,-139.0,1,1
157,362.7889,-57288.4584,-56925.6695,57289.3421,363.6726,0.3001,363.9727,0.3668,-275,0.45,275,0.6421,0;0.5;0,1,363.5774,1.0,538.0,-143.0,1,1
158,364.3395,-57290.0090,-56925.6695,57290.7760,365.1065,0.3001,365.4066,0.3668,275,0.2,-275,0.3921,0;0.5;0,0,365.0113,0.0,-499.0,-131.0,1,1
159,365.7734,-57291.4429,-56925.6695,57292.5934,366.9239,0.3001,367.2240,0.3668,-275,0.05,275,0.6,0;0.5;0,1,366.8370,1.0,551.0,-143.0,1,1
160,367.5908,-57293.2604,-56925.6695,57294.7109,369.0414,0.3001,369.3415,0.3668,-275,0.2,275,0.3921,0;0.5;0,1,368.9462,1.0,557.0,-144.0,1,1
161,369.7084,-57295.3779,-56925.6695,57296.5617,370.8922,0.3001,371.1923,0.3668,-275,0.05,275,0.0735,0;0.5;0,1,370.7969,1.0,559.0,-151.0,1,1
162,371.5591,-57297.2286,-56925.6695,57297.9789,372.3094,0.3001,372.6095,0.3668,275,0.2,-275,0.2082,0;0.5;0,0,372.2226,0.0,-505.0,-129.0,1,1
163,372.9764,-57298.6459,-56925.6695,57299.4462,373.7767,0.3001,374.0768,0.3668,-275,0.45,275,0.4735,0;0.5;0,1,373.6897,1.0,557.0,-145.0,1,1
164,374.4436,-57300.1131,-56925.6695,57301.0468,375.3773,0.3001,375.6774,0.3668,275,0,-275,0.0235,0;0.5;0,0,375.2821,0.0,-500.0,-133.0,1,1
165,376.0443,-57301.7138,-56925.6695,57302.5141,376.8446,0.3001,377.1447,0.3668,-275,0.2,275,0.75,0;0.5;0,1,376.7578,1.0,573.0,-145.0,1,1
166,377.5115,-57303.1810,-56925.6695,57304.5483,378.8787,0.3001,379.1789,0.3668,275,0.0088,-275,0.0323,0;0.5;0,0,378.7834,0.0,-479.0,-133.0,1,1
167,379.5457,-57305.2152,-56925.6695,57307.1660,381.4965,0.3001,381.7966,0.3668,-275,0,275,0.0029,0;0.5;0,1,381.4095,1.0,571.0,-148.0,1,1
168,382.1634,-57307.8329,-56925.6695,57308.6166,382.9471,0.3001,383.2472,0.3668,275,0,-275,0.0671,0;0.5;0,0,382.8601,0.0,-502.0,-133.0,1,1
169,383.6140,-57309.2835,-56925.6695,57310.0338,384.3643,0.3001,384.6644,0.3668,275,0.05,-275,0.1171,1;0;0,0,384.2690,1.0,567.0,-144.0,1,0
170,385.0312,-57310.7007,-56925.6695,57312.2847,386.6152,0.3001,386.9153,0.3668,-275,0,275,0.0235,0;0.5;0,1,386.5286,1.0,568.0,-144.0,1,1
171,387.2821,-57312.9517,-56925.6695,57313.7061,388.0366,0.2960,388.3326,0.3668,-275,0.2,275,0.75,0;0.5;0,1,387.9373,1.0,571.0,-145.0,1,1
172,388.6994,-57314.3689,-56925.6695,57315.1859,389.5164,0.3001,389.8165,0.3668,-275,0.2,275,0.2671,0;0.5;0,1,389.4211,1.0,576.0,-148.0,1,1
173,390.1833,-57315.8528,-56925.6695,57316.8199,391.1504,0.3001,391.4505,0.3668,275,0.2,-275,0.2082,1;0;0,0,391.0635,1.0,576.0,-142.0,1,0
174,391.8173,-57317.4868,-56925.6695,57318.1704,392.5009,0.3001,392.8010,0.3668,275,0.45,-275,0.4735,0;0.5;0,0,392.4056,0.0,-500.0,-132.0,1,1
175,393.1679,-57318.8374,-56925.6695,57319.6044,393.9348,0.3001,394.2350,0.3668,275,0.2,-275,0.3921,0;0.5;0,0,393.8395,0.0,-495.0,-134.0,1,1
176,394.6018,-57320.2713,-56925.6695,57321.4051,395.7356,0.3001,396.0357,0.3668,275,0.0167,-275,0.0196,1;0;0,0,395.6402,1.0,580.0,-144.0,1,0
177,396.4025,-57322.0720,-56925.6695,57323.5226,397.8531,0.3001,398.1532,0.3668,-275,0.0167,275,0.0249,0;0.5;0,1,397.7662,1.0,563.0,4.0,1,1
178,398.5200,-57324.1895,-56925.6695,57324.5730,398.9035,0.3001,399.2036,0.3668,275,0.0167,-275,0.0177,0;0.5;0,0,398.8168,0.0,-514.0,-758.0,1,1
179,399.5705,-57325.2400,-56925.6695,57325.3567,399.6872,0.3001,399.9873,0.3668,-275,0.2,275,0.3921,1;0;0,1,399.6003,0.0,-536.0,-775.0,1,0
180,400.3541,-57326.0236,-56925.6695,57327.5909,401.9214,0.3001,402.2215,0.3668,-275,0.2,275,0.2235,0;0.5;0,1,401.8261,1.0,442.0,-130.0,1,1
181,402.5883,-57328.2579,-56925.6695,57328.9415,403.2720,0.3001,403.5721,0.3668,-275,0.0167,275,0.2088,0;0.5;0,1,403.1851,1.0,452.0,-124.0,1,1
182,403.9389,-57329.6084,-56925.6695,57330.3420,404.6725,0.3001,404.9726,0.3668,-275,0,275,0.1921,0;0.5;0,1,404.5774,1.0,448.0,-131.0,1,1
183,405.3395,-57331.0090,-56925.6695,57331.8093,406.1398,0.3001,406.4399,0.3668,275,0.0167,-275,0.0838,0;0.5;0,0,406.0444,0.0,-461.0,-84.0,1,1
184,406.8067,-57332.4762,-56925.6695,57333.4266,407.7571,0.3001,408.0572,0.3668,275,0.2,-275,1,0;0.5;0,0,407.6701,0.0,-472.0,-75.0,1,1
185,408.4240,-57334.0936,-56925.6695,57335.0606,409.3911,0.3001,409.6912,0.3668,275,0.2,-275,0.75,0;0.5;0,0,409.2959,0.0,-510.0,-77.0,1,1
186,410.0580,-57335.7275,-56925.6695,57336.4278,410.7583,0.3001,411.0584,0.3668,275,0.2,-275,1,0;0.5;0,0,410.6632,0.0,-544.0,-74.0,1,1
187,411.4253,-57337.0948,-56925.6695,57337.9951,412.3256,0.3001,412.6257,0.3668,-275,0.2,275,0.2082,1;0;0,1,412.2302,0.0,-524.0,-71.0,1,0
188,412.9926,-57338.6621,-56925.6695,57342.1468,416.4773,0.3001,416.7774,0.3668,-275,0,275,0.0082,0;0.5;0,1,416.3904,1.0,483.0,-133.0,1,1
189,417.1442,-57342.8138,-56925.6695,57345.5482,419.8787,0.3001,420.1788,0.3668,275,0,-275,0.0671,1;0;0,0,419.7919,1.0,492.0,-124.0,1,0
190,420.5456,-57346.2151,-56925.6695,57346.7487,421.0792,0.3001,421.3793,0.3668,275,0.45,-275,1,0;0.5;0,0,420.9923,0.0,-502.0,-62.0,1,1
191,421.7461,-57347.4156,-56925.6695,57350.4002,424.7306,0.3001,425.0308,0.3668,-275,0.0167,275,0.0402,1;0;0,1,424.6438,0.0,-455.0,-65.0,1,0
192,425.3976,-57351.0671,-56925.6695,57351.6507,425.9811,0.3001,426.2813,0.3668,275,0.2,-275,0.75,0;0.5;0,0,425.8943,0.0,-477.0,-73.0,1,1
193,426.6481,-57352.3176,-56925.6695,57352.9512,427.2817,0.3001,427.5818,0.3668,-275,0.45,275,1,0;0.5;0,1,427.1948,1.0,513.0,-126.0,1,1
194,427.9486,-57353.6181,-56925.6695,57355.9858,430.3162,0.3001,430.6164,0.3668,275,0,-275,0.001,1;0;0,0,430.2293,1.0,478.0,-131.0,1,0
195,430.9832,-57356.6527,-56925.6695,57357.1529,431.4834,0.3001,431.7835,0.3668,275,0.2,-275,0.2082,0;0.5;0,0,431.3880,0.0,-464.0,-72.0,1,1
196,432.1503,-57357.8198,-56925.6695,57358.5535,432.8839,0.3001,433.1841,0.3668,275,0.05,-275,0.1171,0;0.5;0,0,432.7970,0.0,-476.0,-66.0,1,1
197,433.5509,-57359.2204,-56925.6695,57359.9207,434.2512,0.3001,434.5513,0.3668,-275,0.05,275,0.1171,0;0.5;0,1,434.1643,1.0,503.0,-129.0,1,1
198,434.9181,-57360.5876,-56925.6695,57361.3379,435.6684,0.3001,435.9685,0.3668,-275,0.0088,275,0.0323,0;0.5;0,1,435.5732,1.0,507.0,-128.0,1,1
199,436.3353,-57362.0049,-56925.6695,57362.5717,436.9022,0.3001,437.2024,0.3668,275,0.45,-275,1,0;0.5;0,0,436.8153,0.0,-481.0,-69.0,1,1
200,437.5692,-57363.2387,-56925.6695,57364.0390,438.3695,0.3001,438.6696,0.3668,-275,0.2,275,0.2671,0;0.5;0,1,438.2826,1.0,495.0,-124.0,1,1
201,439.0364,-57364.7059,-56925.6695,57365.3729,439.7034,0.3001,440.0035,0.3668,-275,0.45,275,0.4582,0;0.5;0,1,439.6082,1.0,506.0,-125.0,1,1
202,440.3703,-57366.0398,-56925.6695,57366.6567,440.9872,0.3001,441.2873,0.3668,275,0.2,-275,1,0;0.5;0,0,440.8919,0.0,-482.0,-71.0,1,1
203,441.6542,-57367.3237,-56925.6695,57367.9406,442.2711,0.3001,442.5712,0.3668,-275,0.45,275,1,0;0.5;0,1,442.1842,1.0,520.0,-124.0,1,1
204,442.9380,-57368.6075,-56925.6695,57369.4912,443.8217,0.3001,444.1218,0.3668,-275,0.2,275,0.75,0;0.5;0,1,443.7348,1.0,512.0,-123.0,1,1
205,444.4886,-57370.1582,-56925.6695,57371.0085,445.3390,0.3001,445.6391,0.3668,-275,0.0167,275,0.2088,0;0.5;0,1,445.2438,1.0,513.0,-121.0,1,1
206,446.0059,-57371.6754,-56925.6695,57372.4758,446.8062,0.3001,447.1064,0.3668,275,0.0167,-275,0.0402,0;0.5;0,0,446.7193,0.0,-483.0,-68.0,1,1
207,447.4732,-57373.1427,-56925.6695,57374.4099,448.7404,0.3001,449.0405,0.3668,-275,0,275,0.0235,0;0.5;0,1,448.6452,1.0,509.0,-121.0,1,1
208,449.4073,-57375.0768,-56925.6695,57375.7437,450.0742,0.3001,450.3744,0.3668,275,0.05,-275,0.6,0;0.5;0,0,449.9790,0.0,-489.0,-67.0,1,1
209,450.7412,-57376.4107,-56925.6695,57378.9784,453.3089,0.3001,453.6090,0.3668,275,0,-275,0.0029,1;0;0,0,453.2136,1.0,496.0,-121.0,1,0
210,453.9758,-57379.6453,-56925.6695,57380.1622,454.4927,0.3001,454.7928,0.3668,275,0.2,-275,1,0;0.5;0,0,454.4058,0.0,-486.0,-66.0,1,1
211,455.1596,-57380.8291,-56925.6695,57383.0300,457.3605,0.3001,457.6606,0.3668,-275,0.0167,275,0.0402,1;0;0,1,457.2654,0.0,-457.0,-70.0,1,0
212,458.0275,-57383.6970,-56925.6695,57385.1809,459.5114,0.3001,459.8115,0.3668,-275,0,275,0.0082,1;0;0,1,459.4160,0.0,-472.0,-69.0,1,0
213,460.1783,-57385.8478,-56925.6695,57386.4981,460.8286,0.3001,461.1287,0.3668,275,0.2,-275,0.2671,1;0;0,0,460.7417,1.0,496.0,-118.0,1,0
214,461.4955,-57387.1650,-56925.6695,57387.8820,462.2125,0.3001,462.5126,0.3668,-275,0.45,275,0.4735,0;0.5;0,1,462.1173,1.0,498.0,-121.0,1,1
215,462.8794,-57388.5489,-56925.6695,57389.9495,464.2800,0.3001,464.5801,0.3668,-275,0.2,275,0.2235,0;0.5;0,1,464.1932,1.0,487.0,-124.0,1,1
216,464.9469,-57390.6164,-56925.6695,57392.4672,466.7977,0.3001,467.0978,0.3668,275,0.0088,-275,0.017,1;0;0,0,466.7023,1.0,514.0,-121.0,1,0
217,467.4646,-57393.1341,-56925.6695,57393.7385,468.0690,0.3001,468.3691,0.3626,-275,0.05,275,0.2421,0;0.5;0,1,467.9696,1.0,511.0,-119.0,1,1
218,468.7318,-57394.4013,-56925.6695,57395.1183,469.4487,0.3001,469.7489,0.3668,-275,0.2,275,1,0;0.5;0,1,469.3618,1.0,517.0,-119.0,1,1
219,470.1157,-57395.7852,-56925.6695,57396.6355,470.9660,0.3001,471.2661,0.3668,275,0,-275,0.1921,0;0.5;0,0,470.8790,0.0,-480.0,-68.0,1,1
220,471.6330,-57397.3025,-56925.6695,57398.7697,473.1002,0.3001,473.4003,0.3668,275,0.0088,-275,0.017,1;0;0,0,473.0049,1.0,500.0,-122.0,1,0
221,473.7672,-57399.4367,-56925.6695,57399.5367,473.8672,0.3001,474.1673,0.3668,-275,0.2,275,0.75,1;0;0,1,473.7720,0.0,-457.0,-72.0,1,0
222,474.5341,-57400.2036,-56925.6695,57402.2545,476.5850,0.3001,476.8851,0.3668,-275,0,275,0.0671,0;0.5;0,1,476.4897,1.0,507.0,-125.0,1,1
223,477.2519,-57402.9214,-56925.6695,57403.7384,478.0689,0.3001,478.3690,0.3668,-275,0.0167,275,0.0196,0;0.5;0,1,477.9737,1.0,504.0,-119.0,1,1
224,478.7358,-57404.4053,-56925.6695,57405.9226,480.2531,0.3001,480.5532,0.3668,275,0.0167,-275,0.0838,1;0;0,0,480.1664,1.0,498.0,-120.0,1,0
225,480.9201,-57406.5896,-56925.6695,57409.4074,483.7379,0.3001,484.0380,0.3668,275,0.0167,-275,0.0402,0;0.5;0,0,483.6426,0.0,-425.0,-78.0,1,1
226,484.4048,-57410.0743,-56925.6695,57411.8750,486.2055,0.3001,486.5056,0.3668,275,0.05,-275,0.0529,0;0.5;0,0,486.1187,0.0,-426.0,-76.0,1,1
227,486.8725,-57412.5420,-56925.6695,57414.1593,488.4898,0.3001,488.7899,0.3668,275,0,-275,0.0235,0;0.5;0,0,488.4028,0.0,-446.0,-75.0,1,1
228,489.1567,-57414.8262,-56925.6695,57416.6603,490.9908,0.3001,491.2909,0.3668,-275,0.0167,275,0.0249,1;0;0,1,490.9039,0.0,-442.0,-75.0,1,0
229,491.6577,-57417.3272,-56925.6695,57417.8608,492.1913,0.3001,492.4914,0.3668,-275,0.45,275,1,0;0.5;0,1,492.0961,1.0,517.0,-116.0,1,1
230,492.8582,-57418.5277,-56925.6695,57421.0287,495.3592,0.3001,495.6594,0.3668,-275,0.0167,275,0.0196,0;0.5;0,1,495.2724,1.0,501.0,-119.0,1,1
231,496.0262,-57421.6957,-56925.6695,57425.1804,499.5109,0.3001,499.8110,0.3668,-275,0,275,0.0029,0;0.5;0,1,499.4158,1.0,503.0,-127.0,1,1
232,500.1778,-57425.8474,-56925.6695,57426.8478,501.1783,0.3001,501.4784,0.3668,-275,0.2,275,0.3921,0;0.5;0,1,501.0915,1.0,498.0,-119.0,1,1
233,501.8452,-57427.5147,-56925.6695,57429.0153,503.3458,0.3001,503.6459,0.3710,275,0.05,-275,0.0582,1;0;0,0,503.2507,1.0,510.0,-124.0,1,0
234,504.0169,-57429.6864,-56925.6695,57432.2166,506.5471,0.3001,506.8472,0.3668,-275,0.0167,275,0.0838,1;0;0,1,506.4517,0.0,-553.0,-770.0,1,0
235,507.2140,-57432.8835,-56925.6695,57433.0336,507.3641,0.3001,507.6642,0.3668,275,0,-275,0.0671,0;0.5;0,0,507.2773,0.0,-458.0,-71.0,1,1
236,508.0310,-57433.7005,-56925.6695,57435.5179,509.8484,0.3001,510.1485,0.3668,-275,0.0088,275,0.0323,1;0;0,1,509.7533,0.0,-551.0,-770.0,1,0
237,510.5154,-57436.1849,-56925.6695,57436.6517,510.9822,0.3001,511.2823,0.3668,-275,0,275,0.0671,0;0.5;0,1,510.8871,1.0,508.0,-125.0,1,1
238,511.6492,-57437.3187,-56925.6695,57437.9189,512.2494,0.3001,512.5495,0.3668,275,0.45,-275,1,0;0.5;0,0,512.1541,0.0,-549.0,-770.0,1,1
239,512.9163,-57438.5858,-56925.6695,57439.3195,513.6500,0.3001,513.9501,0.3668,275,0.0088,-275,0.0759,0;0.5;0,0,513.5631,0.0,-474.0,-72.0,1,1
240,514.3169,-57439.9864,-56925.6695,57440.5366,514.8671,0.3001,515.1672,0.3668,-275,0,275,0.1921,0;0.5;0,1,514.7719,1.0,516.0,-120.0,1,1
241,515.5341,-57441.2036,-56925.6695,57442.4541,516.7846,0.3001,517.0847,0.3668,275,0.0167,-275,0.0196,1;0;0,0,516.6977,1.0,517.0,-122.0,1,0
242,517.4515,-57443.1210,-56925.6695,57443.7713,518.1018,0.3001,518.4019,0.3668,-275,0.2,275,0.2082,1;0;0,1,518.0065,0.0,-475.0,-71.0,1,0
243,518.7687,-57444.4382,-56925.6695,57449.0067,523.3372,0.3001,523.6373,0.3668,-275,0.05,275,0.1171,0;0.5;0,1,523.2421,1.0,453.0,-124.0,1,1
244,524.0042,-57449.6737,-56925.6695,57451.2243,525.5548,0.3001,525.8549,0.3668,275,0.05,-275,0.2421,0;0.5;0,0,525.4596,0.0,-550.0,-769.0,1,1
245,526.2217,-57451.8912,-56925.6695,57454.2255,528.5560,0.3001,528.8561,0.3668,275,0,-275,0.0082,0;0.5;0,0,528.4693,0.0,-544.0,-767.0,1,1
246,529.2229,-57454.8924,-56925.6695,57456.2263,530.5568,0.3001,530.8569,0.3668,-275,0.45,275,0.4582,0;0.5;0,1,530.4616,1.0,475.0,-126.0,1,1
247,531.2237,-57456.8933,-56925.6695,57461.2784,535.6088,0.3001,535.9090,0.3668,275,0,-275,0.0029,1;0;0,0,535.5220,1.0,468.0,-126.0,1,0
248,536.2758,-57461.9453,-56925.6695,57463.1958,537.5263,0.3001,537.8264,0.3668,-275,0.05,275,0.0582,0;0.5;0,1,537.4393,1.0,481.0,-124.0,1,1
249,538.1932,-57463.8627,-56925.6695,57465.3133,539.6438,0.3001,539.9439,0.3668,275,0.45,-275,0.4582,0;0.5;0,0,539.5485,0.0,-429.0,-69.0,1,1
250,540.3107,-57465.9803,-56925.6695,57467.0140,541.3445,0.3001,541.6446,0.3668,275,0.2,-275,1,0;0.5;0,0,541.2492,0.0,-423.0,-79.0,1,1
251,542.0114,-57467.6809,-56925.6695,57469.5984,543.9289,0.3001,544.2290,0.3668,275,0,-275,0.0235,0;0.5;0,0,543.8337,0.0,-544.0,-767.0,1,1
252,544.5958,-57470.2653,-56925.6695,57470.9823,545.3128,0.3001,545.6129,0.3668,-275,0.0088,275,0.017,0;0.5;0,1,545.2259,1.0,491.0,-124.0,1,1
253,545.9797,-57471.6492,-56925.6695,57472.8664,547.1969,0.3001,547.4970,0.3668,-275,0.2,275,0.2082,0;0.5;0,1,547.1015,1.0,485.0,-123.0,1,1
254,547.8638,-57473.5333,-56925.6695,57475.3507,549.6812,0.3001,549.9813,0.3668,275,0.0088,-275,0.017,0;0.5;0,0,549.5945,0.0,-439.0,-63.0,1,1
255,550.3481,-57476.0177,-56925.6695,57476.8346,551.1651,0.3001,551.4653,0.3668,-275,0.05,275,0.0582,0;0.5;0,1,551.0699,1.0,494.0,-118.0,1,1
256,551.8321,-57477.5016,-56925.6695,57478.3353,552.6657,0.3001,552.9659,0.3668,-275,0.0088,275,0.017,0;0.5;0,1,552.5788,1.0,517.0,-119.0,1,1
257,553.3327,-57479.0022,-56925.6695,57480.2027,554.5332,0.3001,554.8333,0.3668,275,0.05,-275,0.0735,0;0.5;0,0,554.4378,0.0,-536.0,-769.0,1,1
258,555.2001,-57480.8696,-56925.6695,57481.5365,555.8670,0.3001,556.1672,0.3668,275,0.45,-275,1,0;0.5;0,0,555.7801,0.0,-443.0,-75.0,1,1
259,556.5340,-57482.2035,-56925.6695,57482.8204,557.1509,0.3001,557.4510,0.3668,-275,0,275,0.1921,0;0.5;0,1,557.0640,1.0,505.0,-118.0,1,1
260,557.8178,-57483.4873,-56925.6695,57484.1209,558.4514,0.3001,558.7515,0.3668,275,0.2,-275,1,0;0.5;0,0,558.3645,0.0,-538.0,-771.0,1,1
261,559.1183,-57484.7879,-56925.6695,57485.6382,559.9687,0.3001,560.2688,0.3668,-275,0.0167,275,0.0196,0;0.5;0,1,559.8819,1.0,505.0,-116.0,1,1
262,560.6356,-57486.3051,-56925.6695,57486.8554,561.1859,0.3001,561.4860,0.3668,275,0,-275,0.1921,0;0.5;0,0,561.0991,0.0,-452.0,-77.0,1,1
263,561.8528,-57487.5223,-56925.6695,57488.2059,562.5364,0.3001,562.8365,0.3668,-275,0.45,275,0.4735,0;0.5;0,1,562.4411,1.0,504.0,-117.0,1,1
264,563.2033,-57488.8728,-56925.6695,57489.6732,564.0037,0.3001,564.3038,0.3668,275,0.0167,-275,0.0838,0;0.5;0,0,563.9085,0.0,-460.0,-73.0,1,1
265,564.6706,-57490.3401,-56925.6695,57490.9403,565.2708,0.3001,565.5710,0.3668,-275,0.45,275,1,0;0.5;0,1,565.1755,1.0,511.0,-118.0,1,1
266,565.9378,-57491.6073,-56925.6695,57492.4076,566.7381,0.3001,567.0382,0.3668,-275,0.05,275,0.0582,0;0.5;0,1,566.6512,1.0,513.0,-115.0,1,1
267,567.4050,-57493.0745,-56925.6695,57494.6085,568.9390,0.3001,569.2391,0.3668,-275,0,275,0.0082,1;0;0,1,568.8437,0.0,-433.0,-74.0,1,0
268,569.6059,-57495.2754,-56925.6695,57496.1758,570.5063,0.3001,570.8064,0.3668,275,0.05,-275,0.1171,1;0;0,0,570.4194,1.0,505.0,-115.0,1,0
269,571.1732,-57496.8427,-56925.6695,57498.8769,573.2074,0.3001,573.5075,0.3668,-275,0,275,0.0029,0;0.5;0,1,573.1204,1.0,503.0,-116.0,1,1
270,573.8743,-57499.5438,-56925.6695,57501.3612,575.6917,0.3001,575.9918,0.3668,275,0,-275,0.0082,1;0;0,0,575.6048,1.0,495.0,-119.0,1,0
271,576.3587,-57502.0282,-56925.6695,57502.7118,577.0423,0.3001,577.3424,0.3668,-275,0.05,275,0.2421,0;0.5;0,1,576.9469,1.0,498.0,-114.0,1,1
272,577.7092,-57503.3787,-56925.6695,57504.0456,578.3761,0.3001,578.6763,0.3668,275,0.0167,-275,0.2088,0;0.5;0,0,578.2810,0.0,-413.0,-81.0,1,1
273,579.0431,-57504.7126,-56925.6695,57505.3628,579.6933,0.3001,579.9935,0.3668,-275,0.45,275,1,0;0.5;0,1,579.5980,1.0,500.0,-114.0,1,1
274,580.3603,-57506.0298,-56925.6695,57506.9301,581.2606,0.3001,581.5608,0.3668,275,0.45,-275,0.4582,1;0;0,0,581.1653,1.0,495.0,-118.0,1,0
275,581.9276,-57507.5971,-56925.6695,57508.3807,582.7112,0.3001,583.0113,0.3668,-275,0.45,275,0.5171,0;0.5;0,1,582.6160,1.0,512.0,-113.0,1,1
276,583.3782,-57509.0477,-56925.6695,57509.9981,584.3285,0.3001,584.6287,0.3668,275,0.0167,-275,0.0249,0;0.5;0,0,584.2333,0.0,-419.0,-76.0,1,1
277,584.9955,-57510.6650,-56925.6695,57511.3319,585.6624,0.3001,585.9625,0.3668,-275,0.2,275,1,0;0.5;0,1,585.5755,1.0,509.0,-113.0,1,1
278,586.3294,-57511.9989,-56925.6695,57514.2498,588.5803,0.3001,588.8804,0.3668,275,0,-275,0.0029,0;0.5;0,0,588.4851,0.0,-423.0,-76.0,1,1
279,589.2472,-57514.9167,-56925.6695,57515.9004,590.2309,0.3001,590.5310,0.3668,275,0.2,-275,0.3921,0;0.5;0,0,590.1357,0.0,-413.0,-77.0,1,1
280,590.8979,-57516.5674,-56925.6695,57517.2510,591.5815,0.3001,591.8816,0.3668,-275,0.45,275,0.5171,0;0.5;0,1,591.4945,1.0,504.0,-116.0,1,1
281,592.2484,-57517.9179,-56925.6695,57518.6349,592.9654,0.3001,593.2655,0.3668,-275,0.0167,275,0.2088,0;0.5;0,1,592.8701,1.0,509.0,-114.0,1,1
282,593.6323,-57519.3018,-56925.6695,57519.9688,594.2992,0.3001,594.5994,0.3668,275,0,-275,0.1921,0;0.5;0,0,594.2124,0.0,-421.0,-75.0,1,1
283,594.9662,-57520.6357,-56925.6695,57521.8862,596.2167,0.3001,596.5168,0.3668,-275,0.0088,275,0.017,0;0.5;0,1,596.1297,1.0,507.0,-113.0,1,1
284,596.8836,-57522.5531,-56925.6695,57523.3201,597.6506,0.3001,597.9507,0.3668,-275,0,275,0.0671,0;0.5;0,1,597.5637,1.0,508.0,-116.0,1,1
285,598.3175,-57523.9870,-56925.6695,57524.8040,599.1345,0.3001,599.4346,0.3668,275,0,-275,0.0671,0;0.5;0,0,599.0476,0.0,-423.0,-74.0,1,1
286,599.8015,-57525.4710,-56925.6695,57525.9378,600.2683,0.3001,600.5684,0.3668,-275,0.0088,275,0.2009,0;0.5;0,1,600.1815,1.0,512.0,-114.0,1,1
287,600.9353,-57526.6048,-56925.6695,57527.1883,601.5188,0.3001,601.8189,0.3668,-275,0.05,275,0.0735,1;0;0,1,601.4320,0.0,-404.0,-83.0,1,0
288,602.1858,-57527.8553,-56925.6695,57529.1725,603.5030,0.3001,603.8031,0.3668,-275,0.2,275,0.2082,0;0.5;0,1,603.4077,1.0,502.0,-114.0,1,1
289,604.1699,-57529.8394,-56925.6695,57531.5401,605.8706,0.3001,606.1707,0.3668,-275,0.0167,275,0.0177,0;0.5;0,1,605.7753,1.0,502.0,-118.0,1,1
290,606.5375,-57532.2070,-56925.6695,57533.3075,607.6380,0.3001,607.9381,0.3668,-275,0.05,275,0.0529,0;0.5;0,1,607.5426,1.0,508.0,-114.0,1,1
291,608.3049,-57533.9744,-56925.6695,57535.3250,609.6554,0.3001,609.9556,0.3668,-275,0.0167,275,0.0196,1;0;0,1,609.5686,0.0,-409.0,-78.0,1,0
292,610.3224,-57535.9919,-56925.6695,57537.6426,611.9731,0.3001,612.2732,0.3668,275,0,-275,0.0029,0;0.5;0,0,611.8778,0.0,-527.0,-771.0,1,1
293,612.6400,-57538.3095,-56925.6695,57540.2936,614.6241,0.3001,614.9242,0.3668,-275,0.0088,275,0.0117,0;0.5;0,1,614.5290,1.0,504.0,-112.0,1,1
294,615.2911,-57540.9606,-56925.6695,57542.3278,616.6583,0.3001,616.9584,0.3668,-275,0.0088,275,0.0117,0;0.5;0,1,616.5714,1.0,517.0,-109.0,1,1
295,617.3252,-57542.9947,-56925.6695,57544.7955,619.1259,0.3001,619.4261,0.3668,-275,0.0088,275,0.0098,0;0.5;0,1,619.0390,1.0,494.0,-117.0,1,1
296,619.7929,-57545.4624,-56925.6695,57547.4465,621.7770,0.3001,622.0771,0.3668,275,0.05,-275,0.0582,1;0;0,0,621.6901,1.0,487.0,-115.0,1,0
297,622.4439,-57548.1135,-56925.6695,57548.7679,623.0984,0.3001,623.3985,0.3668,-275,0.05,275,0.2421,0;0.5;0,1,623.0072,1.0,502.0,-114.0,1,1
298,623.7653,-57549.4348,-56925.6695,57550.0017,624.3322,0.3001,624.6323,0.3668,-275,0.0167,275,0.0177,0;0.5;0,1,624.2412,1.0,504.0,-118.0,1,1
299,624.9991,-57550.6687,-56925.6695,57552.7487,627.0792,0.3001,627.3793,0.3668,275,0,-275,0.001,0;0.5;0,0,626.9923,0.0,-529.0,-771.0,1,1
300,627.7461,-57553.4156,-56925.6695,57554.2493,628.5798,0.3001,628.8799,0.3668,275,0.05,-275,0.0582,1;0;0,0,628.4845,1.0,497.0,-112.0,1,0
301,629.2467,-57554.9162,-56925.6695,57555.5498,629.8803,0.3001,630.1804,0.3668,275,0.0167,-275,0.0838,0;0.5;0,0,629.7851,0.0,-529.0,-771.0,1,1
302,630.5472,-57556.2167,-56925.6695,57557.2838,631.6143,0.3001,631.9144,0.3668,-275,0.2,275,0.2082,0;0.5;0,1,631.5191,1.0,494.0,-114.0,1,1
303,632.2813,-57557.9508,-56925.6695,57560.6352,634.9657,0.3001,635.2658,0.3668,275,0,-275,0.001,0;0.5;0,0,634.8703,0.0,-531.0,-768.0,1,1
304,635.6326,-57561.3021,-56925.6695,57564.1199,638.4504,0.3001,638.7505,0.3668,-275,0.0167,275,0.0196,1;0;0,1,638.3552,0.0,-530.0,-770.0,1,0
305,639.1174,-57564.7869,-56925.6695,57565.2871,639.6176,0.3001,639.9177,0.3668,-275,0,275,0.1921,0;0.5;0,1,639.5225,1.0,492.0,-115.0,1,1
306,640.2845,-57565.9540,-56925.6695,57567.6547,641.9852,0.3001,642.2853,0.3668,-275,0.0167,275,0.0177,0;0.5;0,1,641.8983,1.0,471.0,-121.0,1,1
307,642.6521,-57568.3216,-56925.6695,57569.1220,643.4524,0.3001,643.7526,0.3668,275,0.2,-275,0.2671,0;0.5;0,0,643.3656,0.0,-402.0,-77.0,1,1
308,644.1194,-57569.7889,-56925.6695,57571.4229,645.7534,0.3001,646.0535,0.3668,275,0.0088,-275,0.0759,0;0.5;0,0,645.6665,0.0,-529.0,-770.0,1,1
309,646.4203,-57572.0898,-56925.6695,57575.2077,649.5382,0.3001,649.8384,0.3668,275,0.0167,-275,0.0177,0;0.5;0,0,649.3264,0.0,-546.0,-786.0,1,1
310,650.2052,-57575.8747,-56925.6695,57581.2602,655.5907,0.3001,655.8908,0.3668,275,0.0167,-275,0.0196,0;0.5;0,0,655.5037,0.0,-443.0,-75.0,1,1
311,656.2576,-57581.9271,-56925.6695,57583.3110,657.6415,0.3001,657.9416,0.3668,275,0,-275,0.1921,0;0.5;0,0,657.5465,0.0,-421.0,-75.0,1,1
312,658.3084,-57583.9780,-56925.6695,57585.0951,659.4256,0.3001,659.7257,0.3668,275,0.05,-275,0.0735,0;0.5;0,0,659.3302,0.0,-402.0,-84.0,1,1
313,660.0925,-57585.7620,-56925.6695,57586.7791,661.1096,0.3001,661.4097,0.3668,-275,0.2,275,0.2082,0;0.5;0,1,661.0144,1.0,444.0,-156.0,1,1
314,661.7765,-57587.4460,-56925.6695,57590.1805,664.5109,0.3001,664.8111,0.3668,-275,0,275,0.0029,0;0.5;0,1,664.4241,1.0,414.0,-157.0,1,1
315,665.1779,-57590.8474,-56925.6695,57592.0145,666.3450,0.3001,666.6451,0.3668,-275,0.45,275,0.6421,0;0.5;0,1,666.2581,1.0,425.0,-155.0,1,1
316,667.0120,-57592.6815,-56925.6695,57593.4985,667.8290,0.3001,668.1291,0.3668,275,0.45,-275,0.6421,1;0;0,0,667.7421,1.0,432.0,-149.0,1,0
317,668.4959,-57594.1654,-56925.6695,57601.9852,676.3157,0.3001,676.6158,0.3668,275,0.0088,-275,0.0117,1;0;0,0,676.2203,1.0,511.0,-84.0,1,0
318,676.9827,-57602.6522,-56925.6695,57603.3900,677.7205,0.2960,678.0164,0.3668,275,0.0088,-275,0.2009,0;0.5;0,0,677.6212,0.0,-413.0,-91.0,1,1
319,678.3832,-57604.0527,-56925.6695,57605.2199,679.5504,0.3001,679.8505,0.3668,275,0.05,-275,0.0735,1;0;0,0,679.4634,1.0,485.0,-104.0,1,0
320,680.2173,-57605.8868,-56925.6695,57606.5871,680.9176,0.3001,681.2177,0.3668,-275,0.05,275,0.6,0;0.5;0,1,680.8307,1.0,479.0,-119.0,1,1
321,681.5845,-57607.2540,-56925.6695,57608.1377,682.4682,0.3001,682.7683,0.3668,-275,0.0088,275,0.2009,0;0.5;0,1,682.3812,1.0,475.0,-109.0,1,1
322,683.1351,-57608.8047,-56925.6695,57611.4557,685.7862,0.3001,686.0863,0.3668,275,0.0088,-275,0.0098,0;0.5;0,0,685.6910,0.0,-405.0,-104.0,1,1
323,686.4531,-57612.1227,-56925.6695,57612.8063,687.1368,0.3001,687.4369,0.3668,-275,0.0167,275,0.0402,0;0.5;0,1,687.0499,1.0,519.0,-100.0,1,1
324,687.8037,-57613.4732,-56925.6695,57614.0734,688.4039,0.3001,688.7041,0.3668,275,0.0088,-275,0.0323,0;0.5;0,0,688.3170,0.0,-413.0,-106.0,1,1
325,689.0709,-57614.7404,-56925.6695,57616.4577,690.7882,0.3001,691.0884,0.3668,-275,0.0088,275,0.0098,0;0.5;0,1,690.6930,1.0,526.0,-103.0,1,1
326,691.4552,-57617.1247,-56925.6695,57619.5923,693.9228,0.3001,694.2230,0.3668,-275,0,275,0.0082,0;0.5;0,1,693.8275,1.0,523.0,-103.0,1,1
327,694.5898,-57620.2593,-56925.6695,57621.8433,696.1737,0.3001,696.4739,0.3668,-275,0.45,275,0.4735,1;0;0,1,696.0785,0.0,-431.0,-99.0,1,0
328,696.8407,-57622.5102,-56925.6695,57623.3605,697.6910,0.3001,697.9911,0.3668,275,0.05,-275,0.0735,1;0;0,0,697.5959,1.0,511.0,-111.0,1,0
329,698.3580,-57624.0275,-56925.6695,57624.9445,699.2750,0.3001,699.5751,0.3668,275,0.45,-275,0.4582,1;0;0,0,699.1798,1.0,502.0,-105.0,1,0
330,699.9419,-57625.6114,-56925.6695,57626.1450,700.4755,0.3001,700.7756,0.3668,275,0.45,-275,1,0;0.5;0,0,700.3802,0.0,-405.0,-97.0,1,1
331,701.1424,-57626.8119,-56925.6695,57627.5789,701.9094,0.3001,702.2095,0.3668,-275,0.45,275,0.4582,0;0.5;0,1,701.8224,1.0,487.0,-107.0,1,1
332,702.5763,-57628.2458,-56925.6695,57629.3796,703.7101,0.3001,704.0102,0.3668,-275,0.45,275,0.4735,0;0.5;0,1,703.6232,1.0,483.0,-119.0,1,1
333,704.3771,-57630.0466,-56925.6695,57633.0478,707.3783,0.3001,707.6784,0.3668,-275,0.0167,275,0.0196,0;0.5;0,1,707.2915,1.0,487.0,-107.0,1,1
334,708.0452,-57633.7147,-56925.6695,57635.0819,709.4124,0.3001,709.7125,0.3668,275,0.45,-275,0.4735,0;0.5;0,0,709.3171,0.0,-420.0,-95.0,1,1
335,710.0794,-57635.7489,-56925.6695,57636.5325,710.8630,0.3001,711.1631,0.3668,-275,0.05,275,0.1171,0;0.5;0,1,710.7761,1.0,495.0,-105.0,1,1
336,711.5299,-57637.1995,-56925.6695,57638.0498,712.3803,0.3001,712.6804,0.3668,-275,0.45,275,1,0;0.5;0,1,712.2851,1.0,499.0,-109.0,1,1
337,713.0472,-57638.7167,-56925.6695,57639.6504,713.9809,0.3001,714.2811,0.3668,275,0.0088,-275,0.2009,0;0.5;0,0,713.8857,0.0,-413.0,-98.0,1,1
338,714.6479,-57640.3174,-56925.6695,57640.9176,715.2481,0.3001,715.5482,0.3668,-275,0.45,275,0.6421,0;0.5;0,1,715.1613,1.0,497.0,-105.0,1,1
339,715.9150,-57641.5846,-56925.6695,57642.3849,716.7154,0.3001,717.0155,0.3668,275,0.05,-275,0.0529,1;0;0,0,716.6284,1.0,498.0,-106.0,1,0
340,717.3823,-57643.0518,-56925.6695,57643.9522,718.2827,0.3001,718.5828,0.3668,275,0.05,-275,0.0735,0;0.5;0,0,718.1957,0.0,-407.0,-101.0,1,1
341,718.9496,-57644.6191,-56925.6695,57645.2194,719.5498,0.3001,719.8500,0.3668,-275,0.05,275,0.6,0;0.5;0,1,719.4631,1.0,499.0,-109.0,1,1
342,720.2168,-57645.8863,-56925.6695,57648.6374,722.9679,0.3001,723.2680,0.3668,-275,0.45,275,0.5171,1;0;0,1,722.8812,0.0,-431.0,-100.0,1,0
343,723.6348,-57649.3043,-56925.6695,57649.4878,723.8182,0.3001,724.1184,0.3668,-275,0.2,275,1,0;0.5;0,1,723.7312,1.0,496.0,-110.0,1,1
344,724.4852,-57650.1547,-56925.6695,57652.1055,726.4360,0.3001,726.7361,0.3668,275,0,-275,0.001,1;0;0,0,726.3492,1.0,490.0,-112.0,1,0
345,727.1029,-57652.7724,-56925.6695,57653.3727,727.7031,0.3001,728.0033,0.3668,275,0.2,-275,0.2082,0;0.5;0,0,727.6079,0.0,-414.0,-97.0,1,1
346,728.3701,-57654.0396,-56925.6695,57656.6907,731.0211,0.3001,731.3213,0.3668,-275,0.0088,275,0.0098,1;0;0,1,730.9344,0.0,-418.0,-106.0,1,0
347,731.6881,-57657.3576,-56925.6695,57658.0079,732.3383,0.3001,732.6385,0.3668,-275,0.0167,275,0.0249,0;0.5;0,1,732.2515,1.0,490.0,-106.0,1,1
348,733.0053,-57658.6748,-56925.6695,57659.3917,733.7222,0.3001,734.0224,0.3668,275,0.2,-275,0.3921,0;0.5;0,0,733.6354,0.0,-409.0,-99.0,1,1
349,734.3892,-57660.0587,-56925.6695,57661.3425,735.6730,0.3001,735.9731,0.3668,275,0.45,-275,0.6421,0;0.5;0,0,735.5779,0.0,-433.0,-101.0,1,1
350,736.3400,-57662.0095,-56925.6695,57662.9265,737.2570,0.3001,737.5571,0.3668,-275,0.05,275,0.0735,0;0.5;0,1,737.1619,1.0,477.0,-113.0,1,1
351,737.9239,-57663.5934,-56925.6695,57664.8773,739.2078,0.3001,739.5079,0.3668,-275,0.2,275,0.2671,0;0.5;0,1,739.1208,1.0,488.0,-109.0,1,1
352,739.8747,-57665.5442,-56925.6695,57668.4788,742.8092,0.3001,743.1094,0.3668,275,0.0167,-275,0.0177,0;0.5;0,0,742.7223,0.0,-423.0,-100.0,1,1
353,743.4762,-57669.1457,-56925.6695,57670.3628,744.6933,0.3001,744.9935,0.3668,275,0.2,-275,0.2235,1;0;0,0,744.6066,1.0,484.0,-110.0,1,0
354,745.3603,-57671.0298,-56925.6695,57671.8801,746.2106,0.3001,746.5107,0.3668,275,0.0167,-275,0.0402,0;0.5;0,0,746.1152,0.0,-404.0,-100.0,1,1
355,746.8775,-57672.5471,-56925.6695,57673.2473,747.5778,0.3001,747.8780,0.3668,-275,0.0088,275,0.0323,0;0.5;0,1,747.4910,1.0,492.0,-109.0,1,1
356,748.2448,-57673.9143,-56925.6695,57674.8813,749.2118,0.3001,749.5119,0.3668,-275,0.2,275,0.2235,1;0;0,1,749.1166,0.0,-431.0,-90.0,1,0
357,749.8788,-57675.5483,-56925.6695,57677.9159,752.2464,0.3001,752.5465,0.3668,275,0.05,-275,0.0529,1;0;0,0,752.1511,1.0,467.0,-113.0,1,0
358,752.9133,-57678.5828,-56925.6695,57680.0501,754.3806,0.3001,754.6807,0.3668,-275,0.45,275,0.5171,1;0;0,1,754.2937,0.0,-399.0,-105.0,1,0
359,755.0475,-57680.7170,-56925.6695,57681.4173,755.7478,0.3001,756.0479,0.3668,-275,0.2,275,0.2235,0;0.5;0,1,755.6526,1.0,470.0,-115.0,1,1
360,756.4147,-57682.0842,-56925.6695,57683.8683,758.1988,0.3001,758.4989,0.3668,-275,0.0088,275,0.017,0;0.5;0,1,758.1118,1.0,475.0,-119.0,1,1
361,758.8657,-57684.5352,-56925.6695,57685.6357,759.9662,0.3001,760.2663,0.3668,275,0.2,-275,0.2235,0;0.5;0,0,759.8708,0.0,-401.0,-105.0,1,1
362,760.6331,-57686.3026,-56925.6695,57687.1696,761.5001,0.3001,761.8002,0.3668,-275,0.45,275,0.5171,0;0.5;0,1,761.4131,1.0,470.0,-117.0,1,1
363,762.1671,-57687.8366,-56925.6695,57690.4710,764.8015,0.3001,765.1016,0.3668,275,0.05,-275,0.6,0;0.5;0,0,764.7146,0.0,-418.0,-114.0,1,1
364,765.4684,-57691.1379,-56925.6695,57691.8549,766.1853,0.3001,766.4855,0.3668,-275,0.2,275,0.75,0;0.5;0,1,766.0986,1.0,480.0,-119.0,1,1
365,766.8523,-57692.5218,-56925.6695,57693.3388,767.6693,0.3001,767.9694,0.3668,-275,0,275,0.0671,0;0.5;0,1,767.5739,1.0,498.0,-114.0,1,1
366,768.3362,-57694.0057,-56925.6695,57695.0561,769.3866,0.3001,769.6868,0.3668,-275,0.45,275,0.4582,0;0.5;0,1,769.2915,1.0,484.0,-117.0,1,1
367,770.0536,-57695.7231,-56925.6695,57696.3733,770.7038,0.3001,771.0040,0.3668,275,0.2,-275,0.75,0;0.5;0,0,770.6086,0.0,-418.0,-109.0,1,1
368,771.3708,-57697.0403,-56925.6695,57700.3249,774.6554,0.3001,774.9556,0.3668,-275,0.0088,275,0.0323,1;0;0,1,774.5601,0.0,-424.0,-111.0,1,0
369,775.3224,-57700.9919,-56925.6695,57701.7755,776.1060,0.3001,776.4061,0.3668,-275,0.0088,275,0.0759,0;0.5;0,1,776.0191,1.0,508.0,-120.0,1,1
370,776.7730,-57702.4425,-56925.6695,57703.4929,777.8234,0.3001,778.1235,0.3668,-275,0.45,275,0.4582,0;0.5;0,1,777.7366,1.0,489.0,-114.0,1,1
371,778.4903,-57704.1598,-56925.6695,57705.1936,779.5241,0.3001,779.8242,0.3668,-275,0.45,275,0.6421,1;0;0,1,779.4371,0.0,-433.0,-97.0,1,0
372,780.1910,-57705.8605,-56925.6695,57706.2273,780.5578,0.3001,780.8579,0.3668,-275,0.05,275,0.0529,0;0.5;0,1,780.4624,1.0,480.0,-116.0,1,1
373,781.2247,-57706.8943,-56925.6695,57708.7617,783.0922,0.3001,783.3923,0.3668,275,0.05,-275,0.6,0;0.5;0,0,782.9803,0.0,-533.0,-808.0,1,1
374,783.7591,-57709.4286,-56925.6695,57710.2289,784.5594,0.3001,784.8596,0.3668,-275,0.05,275,0.2421,0;0.5;0,1,784.4642,1.0,467.0,-129.0,1,1
375,785.2264,-57710.8959,-56925.6695,57712.0797,786.4102,0.3001,786.7103,0.3668,-275,0.0167,275,0.0838,0;0.5;0,1,786.3233,1.0,473.0,-125.0,1,1
376,787.0771,-57712.7466,-56925.6695,57714.1972,788.5277,0.3001,788.8278,0.3668,275,0.45,-275,0.4735,1;0;0,0,788.4323,1.0,475.0,-119.0,1,0
377,789.1946,-57714.8641,-56925.6695,57715.5978,789.9283,0.3001,790.2284,0.3668,-275,0,275,0.0235,0;0.5;0,1,789.8330,1.0,491.0,-123.0,1,1
378,790.5952,-57716.2647,-56925.6695,57720.5664,794.8969,0.3001,795.1971,0.3668,275,0.0088,-275,0.2009,0;0.5;0,0,794.7099,0.0,-575.0,-794.0,1,1
379,795.5639,-57721.2334,-56925.6695,57723.8178,798.1482,0.3001,798.4484,0.3668,275,0,-275,0.0082,1;0;0,0,798.0529,1.0,424.0,-139.0,1,0
380,798.8152,-57724.4847,-56925.6695,57725.1683,799.4988,0.3001,799.7989,0.3668,-275,0.0167,275,0.0838,0;0.5;0,1,799.4118,1.0,440.0,-134.0,1,1
381,800.1657,-57725.8352,-56925.6695,57729.3200,803.6505,0.3001,803.9506,0.3668,275,0.0088,-275,0.017,1;0;0,0,803.5636,1.0,463.0,-134.0,1,0
382,804.3174,-57729.9869,-56925.6695,57754.2467,828.5772,0.3001,828.8773,0.3668,275,0.45,-275,0.4735,1;0;0,0,828.4819,1.0,490.0,-52.0,1,0
383,829.2441,-57754.9136,-56925.6695,57760.2825,834.6130,0.3001,834.9131,0.3668,275,0.0167,-275,0.0402,1;0;0,0,834.5261,1.0,435.0,-112.0,1,0
384,835.2799,-57760.9494,-56925.6695,57767.8855,842.2160,0.3001,842.5162,0.3668,275,0.45,-275,0.6421,0;0.5;0,0,842.1208,0.0,-531.0,-618.0,1,1
385,842.8830,-57768.5525,-56925.6695,57790.1779,864.5084,0.3001,864.8085,0.3668,-275,0,275,0.0235,0;0.5;0,1,864.4214,1.0,622.0,-373.0,1,1
386,865.1753,-57790.8448,-56925.6695,57791.6785,866.0090,0.3001,866.3091,0.3668,-275,0.05,275,0.2421,0;0.5;0,1,865.9138,1.0,641.0,-389.0,1,1
387,866.6759,-57792.3454,-56925.6695,57793.5459,867.8764,0.3001,868.1765,0.3668,275,0.0167,-275,0.0177,0;0.5;0,0,867.7895,0.0,-570.0,-392.0,1,1
388,868.5433,-57794.2128,-56925.6695,57794.8631,869.1936,0.3001,869.4937,0.3668,-275,0.2,275,1,0;0.5;0,1,869.1068,1.0,716.0,-359.0,1,1
389,869.8605,-57795.5300,-56925.6695,57796.0302,870.3607,0.3001,870.6608,0.3668,275,0.05,-275,0.6,0;0.5;0,0,870.2740,0.0,-625.0,-352.0,1,1
390,871.0277,-57796.6972,-56925.6695,57797.3141,871.6446,0.3001,871.9447,0.3668,-275,0.2,275,0.2235,0;0.5;0,1,871.5494,1.0,760.0,-340.0,1,1
391,872.3115,-57797.9810,-56925.6695,57799.0981,873.4286,0.3001,873.7287,0.3668,275,0.0167,-275,0.0177,1;0;0,0,873.3417,1.0,776.0,-340.0,1,0
392,874.0956,-57799.7651,-56925.6695,57800.2486,874.5791,0.3001,874.8792,0.3668,-275,0.05,275,0.0529,1;0;0,1,874.4923,0.0,-642.0,-346.0,1,0
393,875.2460,-57800.9155,-56925.6695,57801.4324,875.7629,0.3001,876.0630,0.3668,-275,0.0167,275,0.0838,0;0.5;0,1,875.6677,1.0,784.0,-339.0,1,1
394,876.4298,-57802.0993,-56925.6695,57802.6496,876.9801,0.3001,877.2802,0.3668,275,0.0167,-275,0.0838,0;0.5;0,0,876.8847,0.0,-639.0,-354.0,1,1
395,877.6470,-57803.3165,-56925.6695,57804.8338,879.1643,0.3001,879.4644,0.3668,-275,0,275,0.0029,0;0.5;0,1,879.0689,1.0,767.0,-347.0,1,1
396,879.8312,-57805.5007,-56925.6695,57806.3177,880.6482,0.3001,880.9483,0.3668,-275,0.05,275,0.6,0;0.5;0,1,880.5612,1.0,775.0,-346.0,1,1
397,881.3151,-57806.9846,-56925.6695,57807.7183,882.0488,0.3001,882.3489,0.3668,275,0,-275,0.0235,0;0.5;0,0,881.9538,0.0,-630.0,-367.0,1,1
398,882.7157,-57808.3852,-56925.6695,57808.9521,883.2826,0.3001,883.5827,0.3668,275,0.0167,-275,0.2088,0;0.5;0,0,883.1874,0.0,-650.0,-348.0,1,1
399,883.9495,-57809.6190,-56925.6695,57810.6861,885.0166,0.3001,885.3168,0.3668,-275,0.0088,275,0.0117,1;0;0,1,884.9298,0.0,-635.0,-363.0,1,0
400,885.6836,-57811.3531,-56925.6695,57813.9875,888.3180,0.3001,888.6181,0.3668,-275,0,275,0.001,0;0.5;0,1,888.2312,1.0,722.0,-364.0,1,1
401,888.9849,-57814.6544,-56925.6695,57815.4214,889.7519,0.3001,890.0520,0.3668,275,0.2,-275,1,0;0.5;0,0,889.6566,0.0,-615.0,-378.0,1,1
402,890.4188,-57816.0883,-56925.6695,57818.9728,893.3033,0.3001,893.6034,0.3668,-275,0.0167,275,0.0249,0;0.5;0,1,893.2163,1.0,714.0,-363.0,1,1
403,893.9702,-57819.6398,-56925.6695,57820.5943,894.9248,0.3001,895.2249,0.3668,275,0.45,-275,0.4735,1;0;0,0,894.8253,1.0,712.0,-365.0,1,0
404,895.5917,-57821.2612,-56925.6695,57822.4075,896.7380,0.3001,897.0381,0.3668,275,0.0167,-275,0.0402,0;0.5;0,0,896.6511,0.0,-630.0,-365.0,1,1
405,897.4050,-57823.0745,-56925.6695,57823.8248,898.1553,0.3001,898.4554,0.3668,275,0,-275,0.0235,0;0.5;0,0,898.0600,0.0,-613.0,-377.0,1,1
406,898.8222,-57824.4917,-56925.6695,57826.0924,900.4228,0.3001,900.7230,0.3668,-275,0,275,0.0235,1;0;0,1,900.3360,0.0,-615.0,-379.0,1,0
407,901.0898,-57826.7593,-56925.6695,57829.4937,903.8242,0.3001,904.1243,0.3668,275,0,-275,0.0082,1;0;0,0,903.7374,1.0,693.0,-375.0,1,0
408,904.4912,-57830.1607,-56925.6695,57834.9459,909.2764,0.3001,909.5765,0.3668,-275,0.0088,275,0.0117,0;0.5;0,1,909.1812,1.0,647.0,-400.0,1,1
409,909.9434,-57835.6129,-56925.6695,57836.2965,910.6270,0.3001,910.9271,0.3668,275,0.0088,-275,0.2009,0;0.5;0,0,910.5401,0.0,-592.0,-399.0,1,1
410,911.2939,-57836.9634,-56925.6695,57838.1806,912.5111,0.3001,912.8112,0.3668,275,0.0088,-275,0.017,0;0.5;0,0,912.4157,0.0,-602.0,-397.0,1,1
411,913.1780,-57838.8475,-56925.6695,57839.6645,913.9950,0.3001,914.2951,0.3668,275,0.0167,-275,0.2088,0;0.5;0,0,913.8997,0.0,-609.0,-395.0,1,1
412,914.6619,-57840.3314,-56925.6695,57841.0484,915.3789,0.3001,915.6790,0.3668,-275,0.0088,275,0.2009,0;0.5;0,1,915.2921,1.0,681.0,-388.0,1,1
413,916.0458,-57841.7153,-56925.6695,57842.4823,916.8128,0.3001,917.1129,0.3668,-275,0.45,275,0.6421,0;0.5;0,1,916.7259,1.0,664.0,-391.0,1,1
414,917.4797,-57843.1492,-56925.6695,57845.2501,919.5806,0.3001,919.8807,0.3668,-275,0,275,0.001,0;0.5;0,1,919.4936,1.0,696.0,-379.0,1,1
415,920.2475,-57845.9170,-56925.6695,57846.8841,921.2146,0.3001,921.5147,0.3668,275,0.45,-275,0.6421,1;0;0,0,921.1192,1.0,705.0,-375.0,1,0
416,921.8815,-57847.5510,-56925.6695,57848.1346,922.4651,0.3001,922.7652,0.3668,275,0.2,-275,0.75,0;0.5;0,0,922.3697,0.0,-620.0,-379.0,1,1
417,923.1320,-57848.8015,-56925.6695,57850.2854,924.6159,0.3001,924.9161,0.3668,275,0.2,-275,0.2082,1;0;0,0,924.5290,1.0,696.0,-378.0,1,0
418,925.2829,-57850.9524,-56925.6695,57853.6535,927.9840,0.3001,928.2841,0.3668,-275,0.0167,275,0.0177,1;0;0,1,927.8971,0.0,-627.0,-369.0,1,0
419,928.6509,-57854.3204,-56925.6695,57855.2208,929.5513,0.3001,929.8514,0.3668,275,0.0167,-275,0.0249,1;0;0,0,929.4560,1.0,724.0,-364.0,1,0
420,930.2182,-57855.8877,-56925.6695,57856.8381,931.1686,0.3001,931.4687,0.3668,275,0.45,-275,0.4582,1;0;0,0,931.0816,1.0,749.0,-355.0,1,0
421,931.8355,-57857.5050,-56925.6695,57858.1053,932.4358,0.3001,932.7359,0.3668,275,0.2,-275,0.2671,0;0.5;0,0,932.3404,0.0,-641.0,-364.0,1,1
422,933.1027,-57858.7722,-56925.6695,57860.5729,934.9034,0.3001,935.2035,0.3668,275,0.0088,-275,0.0098,0;0.5;0,0,934.8165,0.0,-641.0,-364.0,1,1
423,935.5704,-57861.2399,-56925.6695,57862.0777,936.4082,0.3001,936.7083,0.3668,275,0.45,-275,0.5171,0;0.5;0,0,936.3171,0.0,-640.0,-362.0,1,1
424,937.0751,-57862.7446,-56925.6695,57865.1581,939.4886,0.3001,939.7887,0.3668,275,0.2,-275,0.2082,0;0.5;0,0,939.3933,0.0,-650.0,-360.0,1,1
425,940.1555,-57865.8251,-56925.6695,57866.5754,940.9058,0.3001,941.2060,0.3668,-275,0.2,275,1,0;0.5;0,1,940.8106,1.0,732.0,-366.0,1,1
426,941.5728,-57867.2423,-56925.6695,57869.0263,943.3568,0.3001,943.6569,0.3668,-275,0.2,275,0.2671,0;0.5;0,1,943.2700,1.0,670.0,-393.0,1,1
427,944.0238,-57869.6933,-56925.6695,57870.8271,945.1576,0.3001,945.4577,0.3668,-275,0.0167,275,0.2088,0;0.5;0,1,945.0624,1.0,658.0,-402.0,1,1
428,945.8245,-57871.4940,-56925.6695,57872.3610,946.6915,0.3001,946.9916,0.3668,-275,0,275,0.0235,0;0.5;0,1,946.6047,1.0,696.0,-384.0,1,1
429,947.3584,-57873.0280,-56925.6695,57873.6949,948.0254,0.3001,948.3255,0.3668,275,0.05,-275,0.2421,0;0.5;0,0,947.9301,0.0,-633.0,-374.0,1,1
430,948.6923,-57874.3618,-56925.6695,57875.9958,950.3263,0.3001,950.6264,0.3710,-275,0.05,275,0.0735,1;0;0,1,950.2310,0.0,-640.0,-372.0,1,0
431,950.9974,-57876.6669,-56925.6695,57877.5965,951.9270,0.3001,952.2271,0.3668,-275,0.0088,275,0.0098,0;0.5;0,1,951.8318,1.0,695.0,-382.0,1,1
432,952.5939,-57878.2634,-56925.6695,57878.9804,953.3108,0.3001,953.6110,0.3668,275,0.0088,-275,0.0323,0;0.5;0,0,953.2241,0.0,-636.0,-364.0,1,1
433,953.9778,-57879.6473,-56925.6695,57880.9311,955.2616,0.3001,955.5617,0.3668,-275,0.0088,275,0.0117,0;0.5;0,1,955.1748,1.0,649.0,-405.0,1,1
434,955.9286,-57881.5981,-56925.6695,57883.5655,957.8960,0.3001,958.1961,0.3668,-275,0.0167,275,0.0249,0;0.5;0,1,957.8091,1.0,694.0,-385.0,1,1
435,958.5630,-57884.2325,-56925.6695,57886.0999,960.4304,0.3001,960.7305,0.3668,-275,0.0088,275,0.0098,0;0.5;0,1,960.3435,1.0,687.0,-388.0,1,1
436,961.0973,-57886.7668,-56925.6695,57887.6505,961.9810,0.3001,962.2811,0.3668,275,0.05,-275,0.6,0;0.5;0,0,961.8941,0.0,-635.0,-370.0,1,1
437,962.6479,-57888.3175,-56925.6695,57889.2345,963.5650,0.3001,963.8651,0.3668,275,0,-275,0.1921,0;0.5;0,0,963.4696,0.0,-636.0,-369.0,1,1
438,964.2319,-57889.9014,-56925.6695,57890.7351,965.0656,0.3001,965.3657,0.3668,275,0.0088,-275,0.0323,0;0.5;0,0,964.9787,0.0,-620.0,-381.0,1,1
439,965.7325,-57891.4020,-56925.6695,57893.1694,967.4999,0.3001,967.8000,0.3668,275,0.0088,-275,0.2009,0;0.5;0,0,967.4046,0.0,-628.0,-379.0,1,1
440,968.1668,-57893.8363,-56925.6695,57894.5866,968.9171,0.3001,969.2173,0.3668,-275,0.0167,275,0.0196,0;0.5;0,1,968.8219,1.0,703.0,-382.0,1,1
441,969.5841,-57895.2536,-56925.6695,57896.3707,970.7012,0.3001,971.0013,0.3668,-275,0,275,0.0029,1;0;0,1,970.6144,0.0,-610.0,-393.0,1,0
442,971.3681,-57897.0376,-56925.6695,57897.6546,971.9850,0.3001,972.2852,0.3668,-275,0.05,275,0.0735,0;0.5;0,1,971.8983,1.0,708.0,-380.0,1,1
443,972.6520,-57898.3215,-56925.6695,57898.8884,973.2189,0.3001,973.5190,0.3668,-275,0.0167,275,0.2088,0;0.5;0,1,973.1235,1.0,677.0,-395.0,1,1
444,973.8858,-57899.5553,-56925.6695,57901.2893,975.6198,0.3001,975.9200,0.3668,-275,0.0167,275,0.0177,0;0.5;0,1,975.5246,1.0,675.0,-394.0,1,1
445,976.2868,-57901.9563,-56925.6695,57903.1401,977.4706,0.3001,977.7707,0.3668,275,0.05,-275,0.0529,1;0;0,0,977.3836,1.0,685.0,-399.0,1,0
446,978.1375,-57903.8070,-56925.6695,57904.6407,978.9712,0.3001,979.2713,0.3668,-275,0.0167,275,0.0402,0;0.5;0,1,978.8758,1.0,684.0,-393.0,1,1
447,979.6381,-57905.3076,-56925.6695,57906.0579,980.3884,0.3001,980.6885,0.3668,-275,0.0088,275,0.2009,0;0.5;0,1,980.3016,1.0,654.0,-413.0,1,1
448,981.0554,-57906.7249,-56925.6695,57908.5256,982.8561,0.3001,983.1562,0.3668,275,0,-275,0.001,1;0;0,0,982.7608,1.0,652.0,-414.0,1,0
449,983.5230,-57909.1925,-56925.6695,57909.8761,984.2066,0.3001,984.5068,0.3668,-275,0.05,275,0.0529,1;0;0,1,984.1197,0.0,-602.0,-400.0,1,0
450,984.8736,-57910.5431,-56925.6695,57911.2100,985.5405,0.3001,985.8406,0.3668,-275,0.05,275,0.0582,0;0.5;0,1,985.4535,1.0,680.0,-397.0,1,1
451,986.2074,-57911.8770,-56925.6695,57912.5272,986.8577,0.3001,987.1578,0.3668,275,0,-275,0.0671,0;0.5;0,0,986.7709,0.0,-634.0,-374.0,1,1
452,987.5246,-57913.1941,-56925.6695,57914.7448,989.0753,0.3001,989.3754,0.3668,275,0.45,-275,0.5171,0;0.5;0,0,988.9799,0.0,-649.0,-364.0,1,1
453,989.7422,-57915.4117,-56925.6695,57916.3621,990.6926,0.3001,990.9927,0.3668,275,0.2,-275,0.75,0;0.5;0,0,990.6057,0.0,-631.0,-383.0,1,1
454,991.3595,-57917.0290,-56925.6695,57919.1132,993.4437,0.3001,993.7438,0.3668,275,0.0088,-275,0.0117,0;0.5;0,0,993.3485,0.0,-649.0,-369.0,1,1
455,994.1106,-57919.7801,-56925.6695,57920.9139,995.2444,0.3001,995.5445,0.3668,275,0.45,-275,0.5171,0;0.5;0,0,995.1490,0.0,-645.0,-371.0,1,1
456,995.9114,-57921.5809,-56925.6695,57923.2149,997.5453,0.3001,997.8455,0.3668,275,0,-275,0.0029,1;0;0,0,997.4501,1.0,691.0,-395.0,1,0
457,998.2123,-57923.8818,-56925.6695,57924.6988,999.0293,0.3001,999.3294,0.3668,-275,0,275,0.1921,0;0.5;0,1,998.9340,1.0,687.0,-401.0,1,1
458,999.6962,-57925.3657,-56925.6695,57926.2828,1000.6132,0.3001,1000.9134,0.3668,-275,0.0167,275,0.0838,0;0.5;0,1,1000.5262,1.0,685.0,-399.0,1,1
459,1001.2802,-57926.9497,-56925.6695,57927.6166,1001.9471,0.3001,1002.2472,0.3668,275,0.0088,-275,0.0759,0;0.5;0,0,1001.8518,0.0,-633.0,-375.0,1,1
460,1002.6141,-57928.2836,-56925.6695,57929.0172,1003.3477,0.3001,1003.6478,0.3668,-275,0.0088,275,0.2009,0;0.5;0,1,1003.2524,1.0,690.0,-394.0,1,1
461,1004.0146,-57929.6841,-56925.6695,57930.6845,1005.0150,0.3001,1005.3151,0.3668,275,0.05,-275,0.0582,0;0.5;0,0,1004.9281,0.0,-636.0,-378.0,1,1
462,1005.6820,-57931.3515,-56925.6695,57932.1184,1006.4489,0.3001,1006.7491,0.3668,275,0.2,-275,0.75,0;0.5;0,0,1006.3536,0.0,-650.0,-372.0,1,1
463,1007.1159,-57932.7854,-56925.6695,57933.9025,1008.2330,0.3001,1008.5331,0.3668,275,0.05,-275,0.0529,1;0;0,0,1008.1377,1.0,711.0,-388.0,1,0
464,1008.8999,-57934.5694,-56925.6695,57935.2697,1009.6002,0.3001,1009.9003,0.3668,275,0.0088,-275,0.017,0;0.5;0,0,1009.5048,0.0,-643.0,-370.0,1,1
465,1010.2671,-57935.9366,-56925.6695,57936.7036,1011.0341,0.3001,1011.3342,0.3668,-275,0.05,275,0.6,0;0.5;0,1,1010.9388,1.0,700.0,-392.0,1,1
466,1011.7010,-57937.3706,-56925.6695,57938.2709,1012.6014,0.3001,1012.9015,0.3668,275,0.45,-275,0.5171,0;0.5;0,0,1012.5146,0.0,-650.0,-364.0,1,1
467,1013.2683,-57938.9379,-56925.6695,57939.9383,1014.2687,0.3001,1014.5689,0.3668,275,0.2,-275,0.2235,0;0.5;0,0,1014.1818,0.0,-661.0,-355.0,1,1
468,1014.9357,-57940.6052,-56925.6695,57942.2225,1016.5530,0.3001,1016.8531,0.3668,-275,0.05,275,0.2421,0;0.5;0,1,1016.4579,1.0,688.0,-393.0,1,1
469,1017.2199,-57942.8895,-56925.6695,57944.9069,1019.2374,0.3001,1019.5375,0.3668,-275,0.45,275,0.4735,0;0.5;0,1,1019.1505,1.0,695.0,-394.0,1,1
470,1019.9044,-57945.5739,-56925.6695,57946.2908,1020.6213,0.3001,1020.9214,0.3668,275,0.45,-275,1,0;0.5;0,0,1020.5261,0.0,-649.0,-364.0,1,1
471,1021.2882,-57946.9578,-56925.6695,57947.7914,1022.1219,0.3001,1022.4220,0.3668,-275,0.45,275,0.5171,0;0.5;0,1,1022.0267,1.0,722.0,-382.0,1,1
472,1022.7889,-57948.4584,-56925.6695,57950.4925,1024.8230,0.3001,1025.1231,0.3668,275,0.0088,-275,0.0759,1;0;0,0,1024.7277,1.0,726.0,-386.0,1,0
473,1025.4899,-57951.1595,-56925.6695,57951.7930,1026.1235,0.3001,1026.4236,0.3668,275,0.05,-275,0.2421,0;0.5;0,0,1026.0283,0.0,-652.0,-372.0,1,1
474,1026.7905,-57952.4600,-56925.6695,57953.5271,1027.8576,0.3001,1028.1577,0.3668,275,0,-275,0.0235,0;0.5;0,0,1027.7624,0.0,-651.0,-369.0,1,1
475,1028.5245,-57954.1940,-56925.6695,57955.5446,1029.8750,0.3001,1030.1752,0.3668,275,0.0167,-275,0.0177,0;0.5;0,0,1029.7884,0.0,-641.0,-371.0,1,1
476,1030.5420,-57956.2115,-56925.6695,57958.3457,1032.6762,0.3001,1032.9763,0.3668,-275,0.0088,275,0.0323,1;0;0,1,1032.5893,0.0,-647.0,-369.0,1,0
477,1033.3431,-57959.0126,-56925.6695,57959.7629,1034.0934,0.3001,1034.3935,0.3668,275,0.45,-275,0.4735,1;0;0,0,1034.0064,1.0,689.0,-402.0,1,0
478,1034.7603,-57960.4299,-56925.6695,57962.3139,1036.6444,0.3001,1036.9446,0.3668,-275,0.0088,275,0.0098,1;0;0,1,1036.5492,0.0,-656.0,-360.0,1,0
479,1037.3114,-57962.9809,-56925.6695,57966.1155,1040.4460,0.3001,1040.7461,0.3668,275,0.0167,-275,0.0249,1;0;0,0,1040.3590,1.0,668.0,-410.0,1,0
480,1041.1129,-57966.7824,-56925.6695,57969.6836,1044.0141,0.3001,1044.3142,0.3668,275,0.0088,-275,0.0117,0;0.5;0,0,1043.9273,0.0,-649.0,-368.0,1,1
481,1044.6810,-57970.3505,-56925.6695,57971.1675,1045.4980,0.3001,1045.7981,0.3668,-275,0.45,275,0.6421,0;0.5;0,1,1045.4112,1.0,682.0,-403.0,1,1
482,1046.1649,-57971.8345,-56925.6695,57973.5518,1047.8823,0.3001,1048.1824,0.3668,-275,0.0088,275,0.0117,0;0.5;0,1,1047.7955,1.0,668.0,-412.0,1,1
483,1048.5492,-57974.2187,-56925.6695,57975.9361,1050.2666,0.3001,1050.5667,0.3668,275,0.0088,-275,0.0098,1;0;0,0,1050.1796,1.0,665.0,-414.0,1,0
484,1050.9335,-57976.6030,-56925.6695,57977.2366,1051.5671,0.3001,1051.8672,0.3668,-275,0.05,275,0.0582,1;0;0,1,1051.4802,0.0,-642.0,-370.0,1,0
485,1052.2341,-57977.9036,-56925.6695,57978.4038,1052.7343,0.3001,1053.0344,0.3668,-275,0.0167,275,0.2088,0;0.5;0,1,1052.6389,1.0,677.0,-406.0,1,1
486,1053.4012,-57979.0707,-56925.6695,57979.8210,1054.1515,0.3001,1054.4516,0.3668,-275,0.45,275,0.4582,0;0.5;0,1,1054.0563,1.0,684.0,-407.0,1,1
487,1054.8184,-57980.4879,-56925.6695,57981.2883,1055.6187,0.3001,1055.9189,0.3668,-275,0.2,275,0.2082,0;0.5;0,1,1055.5236,1.0,696.0,-397.0,1,1
488,1056.2857,-57981.9552,-56925.6695,57983.7559,1058.0864,0.3001,1058.3865,0.3668,-275,0.0088,275,0.017,1;0;0,1,1057.9994,0.0,-639.0,-379.0,1,0
489,1058.7533,-57984.4229,-56925.6695,57984.9564,1059.2869,0.3001,1059.5870,0.3668,-275,0,275,0.0235,0;0.5;0,1,1059.1999,1.0,701.0,-400.0,1,1
490,1059.9538,-57985.6233,-56925.6695,57986.9906,1061.3210,0.3001,1061.6212,0.3668,275,0,-275,0.0082,1;0;0,0,1061.2341,1.0,701.0,-397.0,1,0
491,1061.9880,-57987.6575,-56925.6695,57988.2244,1062.5549,0.3001,1062.8550,0.3668,275,0.45,-275,0.4735,0;0.5;0,0,1062.4595,0.0,-642.0,-372.0,1,1
492,1063.2218,-57988.8913,-56925.6695,57989.5583,1063.8887,0.3001,1064.1889,0.3668,-275,0.05,275,0.0735,0;0.5;0,1,1063.8020,1.0,706.0,-396.0,1,1
493,1064.5557,-57990.2252,-56925.6695,57991.0255,1065.3560,0.3001,1065.6561,0.3668,-275,0.0088,275,0.0323,0;0.5;0,1,1065.2607,1.0,701.0,-395.0,1,1
494,1066.0229,-57991.6925,-56925.6695,57993.0097,1067.3401,0.3001,1067.6403,0.3668,275,0.0167,-275,0.0249,1;0;0,0,1067.2450,1.0,686.0,-403.0,1,0
495,1068.0071,-57993.6766,-56925.6695,57994.1935,1068.5239,0.3001,1068.8241,0.3668,275,0.0167,-275,0.0838,0;0.5;0,0,1068.4286,0.0,-645.0,-376.0,1,1
496,1069.1909,-57994.8604,-56925.6695,57995.4440,1069.7745,0.3001,1070.0746,0.3668,275,0.0088,-275,0.017,0;0.5;0,0,1069.6876,0.0,-658.0,-364.0,1,1
497,1070.4414,-57996.1109,-56925.6695,57996.7445,1071.0750,0.3001,1071.3751,0.3668,-275,0,275,0.0671,0;0.5;0,1,1070.9880,1.0,692.0,-407.0,1,1
498,1071.7419,-57997.4114,-56925.6695,57997.9616,1072.2921,0.3001,1072.5923,0.3668,275,0.0167,-275,0.0838,0;0.5;0,0,1072.2052,0.0,-661.0,-364.0,1,1
499,1072.9591,-57998.6286,-56925.6695,57999.3122,1073.6427,0.3001,1073.9428,0.3668,-275,0.05,275,0.0582,0;0.5;0,1,1073.5558,1.0,713.0,-396.0,1,1
500,1074.3096,-57999.9791,-56925.6695,58000.6461,1074.9765,0.3001,1075.2767,0.3668,-275,0.05,275,0.6,0;0.5;0,1,1074.8895,1.0,704.0,-398.0,1,1
501,1075.6435,-58001.3130,-56925.6695,58003.1637,1077.4942,0.3001,1077.7944,0.3668,-275,0.0088,275,0.017,1;0;0,1,1077.4074,0.0,-676.0,-355.0,1,0
502,1078.1612,-58003.8307,-56925.6695,58004.3976,1078.7281,0.3001,1079.0282,0.3668,275,0.0167,-275,0.2088,0;0.5;0,0,1078.6411,0.0,-690.0,-349.0,1,1
503,1079.3950,-58005.0645,-56925.6695,58005.6314,1079.9619,0.3001,1080.2620,0.3668,-275,0.45,275,0.6421,0;0.5;0,1,1079.8666,1.0,703.0,-396.0,1,1
504,1080.6288,-58006.2983,-56925.6695,58007.8823,1082.2128,0.3001,1082.5129,0.3668,-275,0,275,0.0082,0;0.5;0,1,1082.1176,1.0,710.0,-393.0,1,1
505,1082.8797,-58008.5492,-56925.6695,58009.5330,1083.8635,0.3001,1084.1636,0.3668,275,0.2,-275,0.2671,1;0;0,0,1083.7766,1.0,700.0,-402.0,1,0
506,1084.5304,-58010.1999,-56925.6695,58010.8002,1085.1306,0.3001,1085.4308,0.3668,-275,0.45,275,0.4582,1;0;0,1,1085.0438,0.0,-663.0,-364.0,1,0
507,1085.7976,-58011.4671,-56925.6695,58012.9510,1087.2815,0.3001,1087.5816,0.3668,275,0.0088,-275,0.0323,1;0;0,0,1087.1862,1.0,679.0,-403.0,1,0
508,1087.9484,-58013.6180,-56925.6695,58014.5016,1088.8321,0.3001,1089.1323,0.3668,275,0,-275,0.0029,0;0.5;0,0,1088.7453,0.0,-615.0,-364.0,1,1
509,1089.4991,-58015.1686,-56925.6695,58015.9522,1090.2827,0.3001,1090.5828,0.3668,275,0.45,-275,1,0;0.5;0,0,1090.1959,0.0,-620.0,-359.0,1,1
510,1090.9496,-58016.6192,-56925.6695,58017.2361,1091.5666,0.3001,1091.8667,0.3668,-275,0.2,275,1,0;0.5;0,1,1091.4713,1.0,705.0,-374.0,1,1
511,1092.2335,-58017.9030,-56925.6695,58018.3865,1092.7170,0.3001,1093.0171,0.3668,275,0,-275,0.1921,0;0.5;0,0,1092.6301,0.0,-627.0,-357.0,1,1
512,1093.3840,-58019.0535,-56925.6695,58020.1706,1094.5011,0.3001,1094.8012,0.3668,275,0,-275,0.001,1;0;0,0,1094.4058,1.0,709.0,-378.0,1,0
513,1095.1680,-58020.8375,-56925.6695,58021.4044,1095.7349,0.3001,1096.0350,0.3668,275,0.45,-275,0.6421,0;0.5;0,0,1095.6397,0.0,-644.0,-354.0,1,1
514,1096.4018,-58022.0714,-56925.6695,58024.3223,1098.6528,0.3001,1098.9529,0.3668,275,0,-275,0.0082,0;0.5;0,0,1098.5576,0.0,-626.0,-361.0,1,1
515,1099.3197,-58024.9892,-56925.6695,58026.7066,1101.0370,0.3001,1101.3372,0.3668,-275,0.05,275,0.0529,1;0;0,1,1100.9418,0.0,-617.0,-369.0,1,0
516,1101.7040,-58027.3735,-56925.6695,58027.9237,1102.2542,0.3001,1102.5543,0.3668,-275,0.2,275,1,0;0.5;0,1,1102.1590,1.0,704.0,-378.0,1,1
517,1102.9211,-58028.5907,-56925.6695,58030.5081,1104.8386,0.3001,1105.1387,0.3668,-275,0.0167,275,0.0196,0;0.5;0,1,1104.7516,1.0,710.0,-375.0,1,1
518,1105.5055,-58031.1750,-56925.6695,58031.7753,1106.1058,0.3001,1106.4059,0.3668,275,0.05,-275,0.6,0;0.5;0,0,1106.0189,0.0,-627.0,-369.0,1,1
519,1106.7727,-58032.4422,-56925.6695,58033.2259,1107.5563,0.3001,1107.8565,0.3668,275,0.05,-275,0.2421,0;0.5;0,0,1107.4693,0.0,-621.0,-368.0,1,1
520,1108.2233,-58033.8928,-56925.6695,58034.5764,1108.9069,0.3001,1109.2070,0.3668,275,0.2,-275,0.2671,1;0;0,0,1108.8199,1.0,720.0,-378.0,1,0
521,1109.5738,-58035.2433,-56925.6695,58036.1103,1110.4408,0.3001,1110.7410,0.3668,275,0.45,-275,0.5171,1;0;0,0,1110.3541,1.0,719.0,-373.0,1,0
522,1111.1078,-58036.7773,-56925.6695,58037.2942,1111.6246,0.3001,1111.9248,0.3668,275,0,-275,0.0671,0;0.5;0,0,1111.5378,0.0,-626.0,-369.0,1,1
523,1112.2916,-58037.9611,-56925.6695,58038.8615,1113.1919,0.3001,1113.4921,0.3668,-275,0.05,275,0.0735,1;0;0,1,1113.0967,0.0,-625.0,-367.0,1,0
524,1113.8589,-58039.5284,-56925.6695,58040.1453,1114.4758,0.3001,1114.7759,0.3668,275,0.05,-275,0.6,0;0.5;0,0,1114.3889,0.0,-634.0,-368.0,1,1
525,1115.1427,-58040.8122,-56925.6695,58041.5125,1115.8430,0.3001,1116.1431,0.3668,275,0.2,-275,0.2235,1;0;0,0,1115.7479,1.0,701.0,-383.0,1,0
526,1116.5099,-58042.1795,-56925.6695,58042.7130,1117.0435,0.3001,1117.3436,0.3668,275,0.0088,-275,0.2009,0;0.5;0,0,1116.9483,0.0,-630.0,-363.0,1,1
527,1117.7104,-58043.3799,-56925.6695,58044.0302,1118.3607,0.3001,1118.6608,0.3668,275,0.45,-275,0.6421,0;0.5;0,0,1118.2738,0.0,-628.0,-369.0,1,1
528,1119.0276,-58044.6971,-56925.6695,58045.6142,1119.9447,0.3001,1120.2448,0.3668,275,0.05,-275,0.0529,1;0;0,0,1119.8494,1.0,701.0,-383.0,1,0
529,1120.6116,-58046.2811,-56925.6695,58048.4820,1122.8125,0.3001,1123.1126,0.3668,-275,0.05,275,0.0529,1;0;0,1,1122.7172,0.0,-637.0,-362.0,1,0
530,1123.4794,-58049.1489,-56925.6695,58050.2660,1124.5965,0.3001,1124.8967,0.3668,-275,0.05,275,0.0529,0;0.5;0,1,1124.5013,1.0,703.0,-384.0,1,1
531,1125.2635,-58050.9330,-56925.6695,58051.8000,1126.1305,0.3001,1126.4306,0.3668,-275,0.0088,275,0.0323,0;0.5;0,1,1126.0352,1.0,705.0,-383.0,1,1
532,1126.7974,-58052.4669,-56925.6695,58053.5174,1127.8478,0.3001,1128.1480,0.3668,-275,0.0088,275,0.0323,0;0.5;0,1,1127.7527,1.0,692.0,-393.0,1,1
533,1128.5148,-58054.1843,-56925.6695,58054.9846,1129.3151,0.3001,1129.6152,0.3668,-275,0.05,275,0.1171,0;0.5;0,1,1129.2199,1.0,697.0,-386.0,1,1
534,1129.9820,-58055.6516,-56925.6695,58056.4852,1130.8157,0.3001,1131.1158,0.3668,275,0.05,-275,0.0582,1;0;0,0,1130.7204,1.0,668.0,-397.0,1,0
535,1131.4826,-58057.1522,-56925.6695,58057.7357,1132.0662,0.3001,1132.3663,0.3668,-275,0,275,0.001,1;0;0,1,1131.9793,0.0,-615.0,-375.0,1,0
536,1132.7331,-58058.4027,-56925.6695,58060.0200,1134.3505,0.3001,1134.6506,0.3668,275,0,-275,0.0029,0;0.5;0,0,1134.2552,0.0,-622.0,-373.0,1,1
537,1135.0174,-58060.6869,-56925.6695,58061.7248,1136.0553,0.2960,1136.3513,0.3668,-275,0.45,275,0.4735,0;0.5;0,1,1135.9644,1.0,695.0,-389.0,1,1
538,1136.7181,-58062.3876,-56925.6695,58063.8215,1138.1520,0.3001,1138.4521,0.3668,275,0.0088,-275,0.0098,1;0;0,0,1138.0651,1.0,678.0,-393.0,1,0
539,1138.8189,-58064.4884,-56925.6695,58065.2054,1139.5359,0.3001,1139.8360,0.3668,-275,0.05,275,0.0529,1;0;0,1,1139.4407,0.0,-616.0,-374.0,1,0
540,1140.2028,-58065.8723,-56925.6695,58066.4893,1140.8197,0.3001,1141.1199,0.3668,-275,0.2,275,0.3921,0;0.5;0,1,1140.7328,1.0,687.0,-396.0,1,1
541,1141.4867,-58067.1562,-56925.6695,58069.6905,1144.0210,0.3001,1144.3211,0.3668,275,0.0167,-275,0.0838,1;0;0,0,1143.9341,1.0,666.0,-397.0,1,0
542,1144.6880,-58070.3575,-56925.6695,58071.3412,1145.6717,0.3001,1145.9718,0.3668,-275,0.2,275,0.2671,0;0.5;0,1,1145.5847,1.0,667.0,-395.0,1,1
543,1146.3386,-58072.0081,-56925.6695,58072.8752,1147.2056,0.3001,1147.5058,0.3668,-275,0.0167,275,0.0838,0;0.5;0,1,1147.1188,1.0,669.0,-393.0,1,1
544,1147.8726,-58073.5421,-56925.6695,58074.4591,1148.7896,0.3001,1149.0897,0.3668,-275,0,275,0.0671,0;0.5;0,1,1148.6943,1.0,671.0,-390.0,1,1
545,1149.4565,-58075.1261,-56925.6695,58075.7930,1150.1235,0.3001,1150.4236,0.3668,275,0.0167,-275,0.2088,0;0.5;0,0,1150.0367,0.0,-609.0,-379.0,1,1
546,1150.7904,-58076.4599,-56925.6695,58077.0102,1151.3406,0.3001,1151.6408,0.3668,-275,0.0088,275,0.0759,0;0.5;0,1,1151.2538,1.0,679.0,-388.0,1,1
547,1152.0076,-58077.6771,-56925.6695,58078.5608,1152.8913,0.3001,1153.1914,0.3668,275,0.0167,-275,0.0177,1;0;0,0,1152.8044,1.0,674.0,-397.0,1,0
548,1153.5582,-58079.2277,-56925.6695,58079.7279,1154.0584,0.3001,1154.3585,0.3668,-275,0.0088,275,0.2009,0;0.5;0,1,1153.9715,1.0,681.0,-392.0,1,1
549,1154.7253,-58080.3949,-56925.6695,58080.9784,1155.3089,0.3001,1155.6090,0.3668,275,0.2,-275,0.2671,0;0.5;0,0,1155.2137,0.0,-649.0,-365.0,1,1
550,1155.9758,-58081.6454,-56925.6695,58083.4294,1157.7599,0.3001,1158.0600,0.3668,275,0.05,-275,0.0582,0;0.5;0,0,1157.6646,0.0,-615.0,-377.0,1,1
551,1158.4268,-58084.0963,-56925.6695,58084.7466,1159.0771,0.3001,1159.3772,0.3668,-275,0,275,0.0671,0;0.5;0,1,1158.9819,1.0,700.0,-378.0,1,1
552,1159.7440,-58085.4135,-56925.6695,58085.9971,1160.3276,0.3001,1160.6277,0.3668,-275,0.05,275,0.1171,0;0.5;0,1,1160.2408,1.0,682.0,-388.0,1,1
553,1160.9945,-58086.6640,-56925.6695,58087.1976,1161.5281,0.3001,1161.8282,0.3668,-275,0.45,275,1,0;0.5;0,1,1161.4327,1.0,719.0,-373.0,1,1
554,1162.1950,-58087.8645,-56925.6695,58088.3981,1162.7286,0.3001,1163.0287,0.3668,275,0.0088,-275,0.0323,0;0.5;0,0,1162.6333,0.0,-635.0,-368.0,1,1
555,1163.3955,-58089.0650,-56925.6695,58089.7986,1164.1291,0.3001,1164.4292,0.3668,-275,0,275,0.001,0;0.5;0,1,1164.0422,1.0,721.0,-374.0,1,1
556,1164.7961,-58090.4656,-56925.6695,58091.0325,1165.3630,0.3001,1165.6631,0.3668,275,0.2,-275,0.3921,0;0.5;0,0,1165.2760,0.0,-653.0,-359.0,1,1
557,1166.0299,-58091.6994,-56925.6695,58092.5998,1166.9303,0.3001,1167.2304,0.3668,-275,0.0088,275,0.0759,0;0.5;0,1,1166.8351,1.0,687.0,-386.0,1,1
558,1167.5972,-58093.2667,-56925.6695,58093.7669,1168.0974,0.3001,1168.3975,0.3668,275,0,-275,0.1921,0;0.5;0,0,1168.0020,0.0,-636.0,-364.0,1,1
559,1168.7643,-58094.4338,-56925.6695,58095.0841,1169.4146,0.3001,1169.7147,0.3668,-275,0.0167,275,0.0838,0;0.5;0,1,1169.3193,1.0,687.0,-384.0,1,1
560,1170.0815,-58095.7510,-56925.6695,58096.3846,1170.7151,0.3001,1171.0152,0.3668,-275,0.2,275,1,0;0.5;0,1,1170.6284,1.0,706.0,-378.0,1,1