trial,presentation_startTime,presentation_duration,prefeedback_startTime,prefeedback_duration,feedback_startTime,feedback_duration,fixation_startTime,fixation_duration,presentation_object1_positionX,presentation_object1_contrastValue,presentation_object2_positionX,presentation_object2_contrastValue,feedback_object1_color,trialValue,presentation_responseTime,presentation_response,presentation_touchPositionX,presentation_touchPositionY,respondedInTime,correct
1,85.9016,-14006.0894,-13920.1878,14013.2923,93.1045,0.3001,93.4047,0.3668,275,0.0088,-275,0.0117,1;0;0,0,93.0094,1.0,836.0,-380.0,1,0
2,93.7715,-14013.9593,-13920.1878,14014.4094,94.2217,0.3001,94.5218,0.3668,-275,0.05,275,0.6,0;0.5;0,1,94.1263,1.0,819.0,-391.0,1,1
3,94.8886,-14015.0764,-13920.1878,14021.6290,101.4413,0.3001,101.7414,0.3668,-275,0.0088,275,0.0323,1;0;0,1,101.3543,0.0,-875.0,-455.0,1,0
4,102.1082,-14022.2960,-13920.1878,14023.1797,102.9919,0.3001,103.2920,0.3668,-275,0.0167,275,0.0196,0;0.5;0,1,102.8967,1.0,821.0,-416.0,1,1
5,103.6588,-14023.8466,-13920.1878,14024.4635,104.2758,0.3001,104.5759,0.3668,-275,0.2,275,1,0;0.5;0,1,104.1889,1.0,834.0,-391.0,1,1
6,104.9427,-14025.1305,-13920.1878,14031.0662,110.8784,0.3001,111.1786,0.3668,-275,0.0088,275,0.0098,0;0.5;0,1,110.7832,1.0,831.0,-409.0,1,1
7,111.5454,-14031.7332,-13920.1878,14032.4376,112.2498,0.2960,112.5458,0.3668,275,0.0167,-275,0.0177,0;0.5;0,0,112.1591,0.0,-872.0,-434.0,1,1
8,112.9126,-14033.1004,-13920.1878,14033.8007,113.6129,0.3001,113.9130,0.3668,-275,0.0167,275,0.0177,0;0.5;0,1,113.5259,1.0,830.0,-411.0,1,1
9,114.2798,-14034.4676,-13920.1878,14035.0345,114.8467,0.3001,115.1468,0.3668,-275,0.45,275,0.4735,1;0;0,1,114.7598,0.0,-884.0,-431.0,1,0
10,115.5137,-14035.7014,-13920.1878,14036.1349,115.9472,0.3001,116.2473,0.3668,-275,0.0167,275,0.2088,0;0.5;0,1,115.8601,1.0,836.0,-394.0,1,1
11,116.6141,-14036.8019,-13920.1878,14037.8523,117.6645,0.3001,117.9647,0.3668,275,0.0088,-275,0.0098,1;0;0,0,117.5693,1.0,846.0,-399.0,1,0
12,118.3315,-14038.5192,-13920.1878,14038.9027,118.7150,0.3001,119.0151,0.3668,-275,0.0167,275,0.2088,0;0.5;0,1,118.6198,1.0,827.0,-408.0,1,1
13,119.3819,-14039.5697,-13920.1878,14040.3867,120.1989,0.3001,120.4990,0.3668,275,0.0167,-275,0.0196,0;0.5;0,0,120.1036,0.0,-894.0,-408.0,1,1
14,120.8658,-14041.0536,-13920.1878,14041.6872,121.4994,0.3001,121.7995,0.3668,275,0.45,-275,0.4582,0;0.5;0,0,121.4043,0.0,-898.0,-397.0,1,1
15,122.1664,-14042.3541,-13920.1878,14043.0544,122.8666,0.3001,123.1668,0.3668,275,0.45,-275,0.4582,0;0.5;0,0,122.7714,0.0,-921.0,-385.0,1,1
16,123.5336,-14043.7214,-13920.1878,14051.7580,131.5702,0.3001,131.8703,0.3668,-275,0,275,0.001,0;0.5;0,1,131.4833,1.0,850.0,-391.0,1,1
17,132.2371,-14052.4249,-13920.1878,14052.8751,132.6873,0.3001,132.9874,0.3668,275,0.2,-275,1,0;0.5;0,0,132.5920,0.0,-900.0,-395.0,1,1
18,133.3542,-14053.5420,-13920.1878,14058.5274,138.3396,0.3001,138.6397,0.3668,275,0,-275,0.001,1;0;0,0,138.2526,1.0,882.0,-340.0,1,0
19,139.0065,-14059.1943,-13920.1878,14059.7946,139.6068,0.3001,139.9069,0.3668,275,0,-275,0.1921,0;0.5;0,0,139.5116,0.0,-898.0,-390.0,1,1
20,140.2737,-14060.4615,-13920.1878,14061.3118,141.1241,0.3001,141.4242,0.3668,275,0.0088,-275,0.0117,0;0.5;0,0,141.0371,0.0,-905.0,-396.0,1,1
21,141.7910,-14061.9788,-13920.1878,14062.5790,142.3912,0.3001,142.6914,0.3668,275,0.0088,-275,0.0323,0;0.5;0,0,142.3043,0.0,-912.0,-416.0,1,1
22,143.0582,-14063.2460,-13920.1878,14064.0796,143.8919,0.3001,144.1920,0.3668,-275,0.0088,275,0.017,0;0.5;0,1,143.7965,1.0,858.0,-370.0,1,1
23,144.5588,-14064.7466,-13920.1878,14065.4135,145.2257,0.3001,145.5258,0.3668,-275,0.45,275,0.5171,1;0;0,1,145.1389,0.0,-917.0,-390.0,1,0
24,145.8927,-14066.0804,-13920.1878,14066.5306,146.3428,0.3001,146.6430,0.3668,-275,0.0088,275,0.0759,0;0.5;0,1,146.2478,1.0,850.0,-389.0,1,1
25,147.0098,-14067.1976,-13920.1878,14067.6978,147.5100,0.3001,147.8101,0.3668,275,0.45,-275,1,0;0.5;0,0,147.4231,0.0,-908.0,-407.0,1,1
26,148.1769,-14068.3647,-13920.1878,14071.2992,151.1115,0.3001,151.4116,0.3668,-275,0,275,0.0029,0;0.5;0,1,151.0248,1.0,849.0,-393.0,1,1
27,151.7784,-14071.9662,-13920.1878,14072.4539,152.2661,0.2960,152.5620,0.3668,275,0.0088,-275,0.2009,0;0.5;0,0,152.1751,0.0,-899.0,-401.0,1,1
28,152.9289,-14073.1166,-13920.1878,14075.6343,155.4465,0.3001,155.7467,0.3668,-275,0.0088,275,0.017,0;0.5;0,1,155.3512,1.0,850.0,-376.0,1,1
29,156.1135,-14076.3013,-13920.1878,14077.6351,157.4474,0.3001,157.7475,0.3668,-275,0.2,275,0.2235,1;0;0,1,157.3520,0.0,-911.0,-390.0,1,0
30,158.1143,-14078.3021,-13920.1878,14078.8856,158.6979,0.3001,158.9980,0.3668,275,0.2,-275,0.3921,0;0.5;0,0,158.6109,0.0,-906.0,-392.0,1,1
31,159.3648,-14079.5526,-13920.1878,14081.5534,161.3656,0.3001,161.6657,0.3668,-275,0.0088,275,0.0098,0;0.5;0,1,161.2702,1.0,864.0,-359.0,1,1
32,162.0326,-14082.2203,-13920.1878,14082.7039,162.5161,0.3001,162.8162,0.3668,275,0.0167,-275,0.2088,0;0.5;0,0,162.4291,0.0,-894.0,-409.0,1,1
33,163.1830,-14083.3708,-13920.1878,14084.0377,163.8500,0.3001,164.1501,0.3668,275,0.2,-275,0.2671,0;0.5;0,0,163.7632,0.0,-893.0,-415.0,1,1
34,164.5169,-14084.7047,-13920.1878,14085.2716,165.0838,0.3001,165.3839,0.3668,-275,0.0167,275,0.2088,0;0.5;0,1,164.9885,1.0,851.0,-382.0,1,1
35,165.7507,-14085.9385,-13920.1878,14086.7722,166.5844,0.3001,166.8845,0.3668,-275,0.45,275,0.4582,0;0.5;0,1,166.4976,1.0,850.0,-395.0,1,1
36,167.2513,-14087.4391,-13920.1878,14090.2903,170.1025,0.3001,170.4026,0.3668,275,0.0088,-275,0.017,0;0.5;0,0,170.0156,0.0,-944.0,-346.0,1,1
37,170.7694,-14090.9572,-13920.1878,14091.7075,171.5197,0.3001,171.8199,0.3668,275,0.0088,-275,0.0759,0;0.5;0,0,171.4245,0.0,-928.0,-366.0,1,1
38,172.1867,-14092.3745,-13920.1878,14092.9247,172.7369,0.3001,173.0370,0.3668,275,0.2,-275,0.75,0;0.5;0,0,172.6501,0.0,-925.0,-346.0,1,1
39,173.4038,-14093.5916,-13920.1878,14094.6087,174.4209,0.3001,174.7210,0.3668,275,0.0167,-275,0.0196,1;0;0,0,174.3340,1.0,843.0,-395.0,1,0
40,175.0879,-14095.2756,-13920.1878,14096.2260,176.0382,0.3001,176.3384,0.3668,-275,0.05,275,0.0529,0;0.5;0,1,175.9429,1.0,841.0,-410.0,1,1
41,176.7052,-14096.8930,-13920.1878,14097.3765,177.1887,0.3001,177.4888,0.3668,275,0.05,-275,0.2421,0;0.5;0,0,177.1021,0.0,-911.0,-383.0,1,1
42,177.8556,-14098.0434,-13920.1878,14098.5270,178.3392,0.3001,178.6393,0.3668,275,0.0088,-275,0.2009,0;0.5;0,0,178.2524,0.0,-916.0,-378.0,1,1
43,179.0061,-14099.1939,-13920.1878,14099.9275,179.7397,0.3001,180.0399,0.3668,-275,0.2,275,0.2671,0;0.5;0,1,179.6528,1.0,845.0,-400.0,1,1
44,180.4067,-14100.5945,-13920.1878,14102.9121,182.7243,0.3001,183.0244,0.3668,275,0.0088,-275,0.0323,1;0;0,0,182.6373,1.0,858.0,-365.0,1,0
45,183.3912,-14103.5790,-13920.1878,14104.9629,184.7751,0.3001,185.0752,0.3668,-275,0.2,275,0.2082,0;0.5;0,1,184.6801,1.0,826.0,-394.0,1,1
46,185.4421,-14105.6298,-13920.1878,14106.3968,186.2090,0.3001,186.5092,0.3668,275,0.2,-275,0.2082,0;0.5;0,0,186.1222,0.0,-943.0,-424.0,1,1
47,186.8760,-14107.0638,-13920.1878,14107.7474,187.5596,0.3001,187.8597,0.3668,-275,0.45,275,0.5171,0;0.5;0,1,187.4643,1.0,842.0,-391.0,1,1
48,188.2265,-14108.4143,-13920.1878,14108.8978,188.7101,0.3001,189.0102,0.3668,275,0.0088,-275,0.2009,0;0.5;0,0,188.6147,0.0,-939.0,-394.0,1,1
49,189.3770,-14109.5648,-13920.1878,14110.0650,189.8772,0.3001,190.1773,0.3668,-275,0.2,275,0.3921,0;0.5;0,1,189.7902,1.0,847.0,-391.0,1,1
50,190.5441,-14110.7319,-13920.1878,14113.7665,193.5787,0.3001,193.8788,0.3668,-275,0.0167,275,0.0249,0;0.5;0,1,193.4835,1.0,841.0,-394.0,1,1
51,194.2456,-14114.4334,-13920.1878,14115.8006,195.6129,0.3001,195.9130,0.3668,-275,0.0088,275,0.0098,0;0.5;0,1,195.5261,1.0,860.0,-366.0,1,1
52,196.2798,-14116.4676,-13920.1878,14116.9511,196.7633,0.3001,197.0634,0.3668,275,0.05,-275,0.6,0;0.5;0,0,196.6680,0.0,-943.0,-385.0,1,1
53,197.4303,-14117.6180,-13920.1878,14118.4017,198.2139,0.3001,198.5140,0.3668,275,0.45,-275,0.4582,1;0;0,0,198.1271,1.0,841.0,-385.0,1,0
54,198.8808,-14119.0686,-13920.1878,14119.6522,199.4644,0.3001,199.7645,0.3668,275,0.45,-275,0.4735,1;0;0,0,199.3774,1.0,851.0,-374.0,1,0
55,200.1314,-14120.3191,-13920.1878,14121.4529,201.2651,0.3001,201.5653,0.3668,-275,0.0088,275,0.0323,0;0.5;0,1,201.1783,1.0,858.0,-382.0,1,1
56,201.9321,-14122.1199,-13920.1878,14122.6201,202.4323,0.3001,202.7324,0.3668,275,0,-275,0.0671,0;0.5;0,0,202.3371,0.0,-937.0,-380.0,1,1
57,203.0992,-14123.2870,-13920.1878,14123.8539,203.6661,0.3001,203.9662,0.3668,275,0.0167,-275,0.0177,0;0.5;0,0,203.5708,0.0,-937.0,-395.0,1,1
58,204.3331,-14124.5208,-13920.1878,14125.1211,204.9333,0.3001,205.2334,0.3668,-275,0.0088,275,0.017,0;0.5;0,1,204.8381,1.0,853.0,-376.0,1,1
59,205.6002,-14125.7880,-13920.1878,14126.3549,206.1671,0.3001,206.4673,0.3668,-275,0.2,275,1,0;0.5;0,1,206.0719,1.0,853.0,-381.0,1,1
60,206.8341,-14127.0219,-13920.1878,14128.2890,208.1013,0.3001,208.4014,0.3668,275,0.0088,-275,0.0323,0;0.5;0,0,208.0061,0.0,-931.0,-387.0,1,1
61,208.7682,-14128.9560,-13920.1878,14129.6896,209.5018,0.3001,209.8019,0.3668,-275,0.2,275,0.3921,0;0.5;0,1,209.4150,1.0,818.0,-273.0,1,1
62,210.1688,-14130.3565,-13920.1878,14131.0735,210.8857,0.3001,211.1858,0.3668,-275,0.0088,275,0.0323,0;0.5;0,1,210.7990,1.0,821.0,-255.0,1,1
63,211.5527,-14131.7404,-13920.1878,14132.3240,212.1362,0.3001,212.4363,0.3668,-275,0.05,275,0.0735,0;0.5;0,1,212.0492,1.0,826.0,-253.0,1,1
64,212.8032,-14132.9909,-13920.1878,14135.9755,215.7877,0.3001,216.0878,0.3668,275,0,-275,0.0029,0;0.5;0,0,215.7007,0.0,-961.0,-377.0,1,1
65,216.4546,-14136.6424,-13920.1878,14137.5761,217.3884,0.3001,217.6885,0.3668,-275,0.0088,275,0.017,0;0.5;0,1,217.3015,1.0,836.0,-267.0,1,1
66,218.0553,-14138.2431,-13920.1878,14139.0934,218.9056,0.3001,219.2058,0.3668,275,0.0088,-275,0.0117,0;0.5;0,0,218.8104,0.0,-944.0,-343.0,1,1
67,219.5726,-14139.7604,-13920.1878,14140.5607,220.3729,0.3001,220.6730,0.3668,-275,0.45,275,0.4735,0;0.5;0,1,220.2779,1.0,833.0,-271.0,1,1
68,221.0398,-14141.2276,-13920.1878,14145.9129,225.7251,0.3001,226.0252,0.3668,275,0.0088,-275,0.0098,1;0;0,0,225.6382,1.0,835.0,-290.0,1,0
69,226.3920,-14146.5798,-13920.1878,14147.2634,227.0756,0.3001,227.3757,0.3668,275,0.05,-275,0.0735,0;0.5;0,0,226.9804,0.0,-937.0,-382.0,1,1
70,227.7426,-14147.9303,-13920.1878,14150.6648,230.4770,0.3001,230.7771,0.3668,275,0.0167,-275,0.0177,1;0;0,0,230.3901,1.0,841.0,-278.0,1,0
71,231.1439,-14151.3317,-13920.1878,14151.8152,231.6275,0.3001,231.9276,0.3668,275,0.45,-275,0.6421,0;0.5;0,0,231.5321,0.0,-937.0,-384.0,1,1
72,232.2944,-14152.4822,-13920.1878,14153.1825,232.9947,0.3001,233.2948,0.3668,275,0.0167,-275,0.0177,0;0.5;0,0,232.8995,0.0,-936.0,-380.0,1,1
73,233.6616,-14153.8494,-13920.1878,14154.4663,234.2785,0.3001,234.5787,0.3668,275,0.05,-275,0.1171,0;0.5;0,0,234.1833,0.0,-934.0,-368.0,1,1
74,234.9455,-14155.1333,-13920.1878,14155.6001,235.4123,0.3001,235.7125,0.3668,-275,0.2,275,0.75,0;0.5;0,1,235.3172,1.0,836.0,-282.0,1,1
75,236.0793,-14156.2671,-13920.1878,14162.0694,241.8816,0.3001,242.1817,0.3668,275,0,-275,0.0029,0;0.5;0,0,241.7946,0.0,-952.0,-232.0,1,1
76,242.5486,-14162.7363,-13920.1878,14163.1907,243.0029,0.2960,243.2989,0.3668,-275,0.0088,275,0.017,0;0.5;0,1,242.9118,1.0,849.0,-260.0,1,1
77,243.6657,-14163.8535,-13920.1878,14164.5037,244.3159,0.3001,244.6161,0.3668,-275,0.05,275,0.0735,0;0.5;0,1,244.2291,1.0,853.0,-257.0,1,1
78,244.9829,-14165.1707,-13920.1878,14167.7217,247.5339,0.3001,247.8340,0.3668,-275,0.0088,275,0.017,1;0;0,1,247.4470,0.0,-923.0,-282.0,1,0
79,248.2009,-14168.3886,-13920.1878,14168.8722,248.6844,0.3001,248.9845,0.3668,-275,0.0088,275,0.2009,0;0.5;0,1,248.5974,1.0,852.0,-260.0,1,1
80,249.3513,-14169.5391,-13920.1878,14170.0560,249.8682,0.3001,250.1683,0.3668,-275,0,275,0.0671,0;0.5;0,1,249.7728,1.0,841.0,-264.0,1,1
81,250.5351,-14170.7229,-13920.1878,14171.1731,250.9853,0.3001,251.2854,0.3668,275,0.05,-275,0.6,0;0.5;0,0,250.8984,0.0,-932.0,-283.0,1,1
82,251.6523,-14171.8400,-13920.1878,14172.1568,251.9691,0.3001,252.2692,0.3668,-275,0.2,275,0.75,0;0.5;0,1,251.8822,1.0,849.0,-271.0,1,1
83,252.6360,-14172.8238,-13920.1878,14173.6408,253.4530,0.3001,253.7531,0.3668,275,0.0167,-275,0.0402,0;0.5;0,0,253.3660,0.0,-920.0,-322.0,1,1
84,254.1199,-14174.3077,-13920.1878,14177.2089,257.0211,0.3001,257.3212,0.3668,275,0.0167,-275,0.0249,1;0;0,0,256.9259,1.0,832.0,-272.0,1,0
85,257.6880,-14177.8758,-13920.1878,14178.5428,258.3550,0.3001,258.6551,0.3668,-275,0.05,275,0.0735,0;0.5;0,1,258.2597,1.0,848.0,-273.0,1,1
86,259.0219,-14179.2097,-13920.1878,14179.7099,259.5221,0.3001,259.8222,0.3668,-275,0,275,0.1921,0;0.5;0,1,259.4352,1.0,836.0,-295.0,1,1
87,260.1891,-14180.3768,-13920.1878,14183.6782,263.4904,0.3001,263.7905,0.3668,-275,0,275,0.001,1;0;0,1,263.3952,0.0,-943.0,-293.0,1,0
88,264.1573,-14184.3451,-13920.1878,14185.2121,265.0243,0.3001,265.3245,0.3668,275,0.0088,-275,0.0098,1;0;0,0,264.9292,1.0,836.0,-275.0,1,0
89,265.6913,-14185.8791,-13920.1878,14186.9628,266.7751,0.3001,267.0752,0.3668,275,0.05,-275,0.0582,0;0.5;0,0,266.6797,0.0,-687.0,156.0,1,1
90,267.4420,-14187.6298,-13920.1878,14188.2967,268.1089,0.3001,268.4091,0.3668,-275,0.0167,275,0.2088,0;0.5;0,1,268.0220,1.0,842.0,-311.0,1,1
91,268.7759,-14188.9636,-13920.1878,14189.5472,269.3594,0.3001,269.6596,0.3668,275,0.2,-275,0.3921,0;0.5;0,0,269.2642,0.0,-854.0,-426.0,1,1
92,270.0264,-14190.2142,-13920.1878,14190.7977,270.6099,0.3001,270.9101,0.3668,275,0,-275,0.0235,0;0.5;0,0,270.5147,0.0,-856.0,-443.0,1,1
93,271.2769,-14191.4647,-13920.1878,14192.0649,271.8771,0.3001,272.1772,0.3668,-275,0.05,275,0.1171,0;0.5;0,1,271.7902,1.0,834.0,-320.0,1,1
94,272.5441,-14192.7318,-13920.1878,14193.3488,273.1610,0.3001,273.4611,0.3668,-275,0.05,275,0.0582,1;0;0,1,273.0742,0.0,-867.0,-359.0,1,0
95,273.8279,-14194.0157,-13920.1878,14197.0503,276.8625,0.3001,277.1626,0.3668,275,0,-275,0.0235,1;0;0,0,276.7672,1.0,828.0,-327.0,1,0
96,277.5294,-14197.7172,-13920.1878,14198.5342,278.3464,0.3001,278.6465,0.3668,-275,0.0167,275,0.0196,0;0.5;0,1,278.2594,1.0,821.0,-424.0,1,1
97,279.0134,-14199.2011,-13920.1878,14199.9848,279.7970,0.3001,280.0971,0.3668,275,0.0088,-275,0.0117,1;0;0,0,279.7101,1.0,824.0,-486.0,1,0
98,280.4639,-14200.6517,-13920.1878,14201.6188,281.4310,0.3001,281.7311,0.3668,275,0,-275,0.0029,1;0;0,0,281.3358,1.0,834.0,-463.0,1,0
99,282.0979,-14202.2857,-13920.1878,14202.8026,282.6148,0.3001,282.9149,0.3668,275,0.2,-275,0.3921,0;0.5;0,0,282.5279,0.0,-920.0,-388.0,1,1
100,283.2818,-14203.4695,-13920.1878,14204.4533,284.2655,0.3001,284.5656,0.3668,275,0.05,-275,0.0735,1;0;0,0,284.1785,1.0,838.0,-452.0,1,0
101,284.9324,-14205.1202,-13920.1878,14206.1039,285.9162,0.3001,286.2163,0.3668,-275,0.45,275,0.5171,0;0.5;0,1,285.8209,1.0,844.0,-448.0,1,1
102,286.5831,-14206.7709,-13920.1878,14207.3044,287.1166,0.3001,287.4168,0.3668,275,0,-275,0.1921,0;0.5;0,0,287.0298,0.0,-936.0,-335.0,1,1
103,287.7836,-14207.9714,-13920.1878,14208.5049,288.3171,0.3001,288.6172,0.3668,-275,0,275,0.1921,0;0.5;0,1,288.2219,1.0,845.0,-440.0,1,1
104,288.9841,-14209.1718,-13920.1878,14209.6220,289.4342,0.3001,289.7344,0.3668,275,0.0088,-275,0.2009,0;0.5;0,0,289.3389,0.0,-932.0,-345.0,1,1
105,290.1012,-14210.2890,-13920.1878,14210.8725,290.6848,0.3001,290.9849,0.3668,-275,0.0167,275,0.0402,0;0.5;0,1,290.5896,1.0,836.0,-440.0,1,1
106,291.3517,-14211.5395,-13920.1878,14212.1397,291.9519,0.3001,292.2521,0.3668,-275,0.45,275,0.4582,1;0;0,1,291.8650,0.0,-936.0,-330.0,1,0
107,292.6189,-14212.8066,-13920.1878,14213.2568,293.0691,0.3001,293.3692,0.3668,-275,0.05,275,0.6,0;0.5;0,1,292.9823,1.0,836.0,-454.0,1,1
108,293.7360,-14213.9238,-13920.1878,14214.3406,294.1528,0.3001,294.4529,0.3668,275,0.05,-275,0.6,0;0.5;0,0,294.0659,0.0,-927.0,-329.0,1,1
109,294.8198,-14215.0075,-13920.1878,14215.3910,295.2033,0.3001,295.5034,0.3668,-275,0.2,275,0.2671,0;0.5;0,1,295.1079,1.0,826.0,-465.0,1,1
110,295.8702,-14216.0580,-13920.1878,14216.5915,296.4037,0.3001,296.7039,0.3668,275,0.45,-275,0.5171,0;0.5;0,0,296.3085,0.0,-927.0,-345.0,1,1
111,297.0707,-14217.2585,-13920.1878,14218.1922,298.0044,0.3001,298.3045,0.3668,-275,0.0088,275,0.0098,0;0.5;0,1,297.9093,1.0,839.0,-426.0,1,1
112,298.6713,-14218.8591,-13920.1878,14219.7595,299.5717,0.3001,299.8718,0.3668,-275,0.05,275,0.0582,0;0.5;0,1,299.4849,1.0,831.0,-447.0,1,1
113,300.2386,-14220.4264,-13920.1878,14221.1934,301.0056,0.3001,301.3057,0.3668,-275,0.05,275,0.2421,0;0.5;0,1,300.9188,1.0,831.0,-452.0,1,1
114,301.6725,-14221.8603,-13920.1878,14222.3272,302.1394,0.3001,302.4395,0.3668,275,0.05,-275,0.2421,0;0.5;0,0,302.0524,0.0,-914.0,-353.0,1,1
115,302.8063,-14222.9941,-13920.1878,14223.4943,303.3065,0.3001,303.6067,0.3668,-275,0.05,275,0.2421,0;0.5;0,1,303.2197,1.0,826.0,-457.0,1,1
116,303.9735,-14224.1613,-13920.1878,14236.1828,315.9950,0.3001,316.2951,0.3668,-275,0,275,0.001,0;0.5;0,1,315.9081,1.0,875.0,-321.0,1,1
117,316.6619,-14236.8497,-13920.1878,14237.8335,317.6457,0.3001,317.9458,0.3668,275,0.0167,-275,0.0177,1;0;0,0,317.5504,1.0,845.0,-315.0,1,0
118,318.3126,-14238.5004,-13920.1878,14239.7342,319.5465,0.3001,319.8466,0.3668,-275,0.0088,275,0.0117,1;0;0,1,319.4512,0.0,-850.0,-273.0,1,0
119,320.2134,-14240.4012,-13920.1878,14240.6012,320.4135,0.3001,320.7136,0.3668,275,0.45,-275,0.6421,1;0;0,0,320.3183,1.0,829.0,-335.0,1,0
120,321.0804,-14241.2682,-13920.1878,14242.0518,321.8641,0.3001,322.1642,0.3668,275,0.05,-275,0.0735,0;0.5;0,0,321.7771,0.0,-822.0,-329.0,1,1
121,322.5310,-14242.7188,-13920.1878,14243.4357,323.2480,0.3001,323.5481,0.3668,-275,0.2,275,0.2082,0;0.5;0,1,323.1610,1.0,825.0,-358.0,1,1
122,323.9149,-14244.1027,-13920.1878,14244.8530,324.6652,0.3001,324.9653,0.3668,-275,0.2,275,0.2082,0;0.5;0,1,324.5699,1.0,831.0,-367.0,1,1
123,325.3321,-14245.5199,-13920.1878,14246.3369,326.1491,0.3001,326.4492,0.3668,-275,0.2,275,0.2235,0;0.5;0,1,326.0540,1.0,818.0,-372.0,1,1
124,326.8161,-14247.0038,-13920.1878,14247.6875,327.4997,0.3001,327.7998,0.3668,-275,0.0167,275,0.0402,0;0.5;0,1,327.4127,1.0,825.0,-359.0,1,1
125,328.1666,-14248.3544,-13920.1878,14248.8046,328.6168,0.3001,328.9169,0.3668,275,0,-275,0.1921,0;0.5;0,0,328.5298,0.0,-840.0,-301.0,1,1
126,329.2837,-14249.4715,-13920.1878,14249.9717,329.7839,0.3001,330.0841,0.3668,-275,0.0167,275,0.0838,0;0.5;0,1,329.6887,1.0,831.0,-346.0,1,1
127,330.4509,-14250.6386,-13920.1878,14251.1055,330.9177,0.3001,331.2178,0.3668,-275,0.05,275,0.6,0;0.5;0,1,330.8224,1.0,836.0,-345.0,1,1
128,331.5847,-14251.7724,-13920.1878,14252.4227,332.2349,0.3001,332.5350,0.3668,275,0.05,-275,0.0529,1;0;0,0,332.1480,1.0,825.0,-380.0,1,0
129,332.9019,-14253.0896,-13920.1878,14253.8399,333.6522,0.3001,333.9523,0.3668,-275,0.0167,275,0.0838,0;0.5;0,1,333.5568,1.0,831.0,-341.0,1,1
130,334.3191,-14254.5069,-13920.1878,14255.1405,334.9527,0.3001,335.2528,0.3668,275,0.45,-275,0.5171,0;0.5;0,0,334.8658,0.0,-851.0,-278.0,1,1
131,335.6196,-14255.8074,-13920.1878,14256.3576,336.1699,0.3001,336.4700,0.3668,275,0,-275,0.001,1;0;0,0,336.0829,1.0,826.0,-338.0,1,0
132,336.8368,-14257.0246,-13920.1878,14257.5248,337.3370,0.3001,337.6371,0.3668,275,0.2,-275,1,0;0.5;0,0,337.2417,0.0,-870.0,-264.0,1,1
133,338.0039,-14258.1917,-13920.1878,14259.2922,339.1044,0.3001,339.4045,0.3668,275,0.0088,-275,0.0098,1;0;0,0,339.0092,1.0,826.0,-344.0,1,0
134,339.7713,-14259.9591,-13920.1878,14260.9095,340.7217,0.3001,341.0218,0.3668,-275,0,275,0.0671,1;0;0,1,340.6348,0.0,-856.0,-266.0,1,0
135,341.3886,-14261.5764,-13920.1878,14262.0266,341.8388,0.3001,342.1389,0.3668,275,0,-275,0.1921,0;0.5;0,0,341.7520,0.0,-863.0,-263.0,1,1
136,342.5058,-14262.6935,-13920.1878,14263.8940,343.7062,0.3001,344.0064,0.3668,275,0.0167,-275,0.0196,0;0.5;0,0,343.6193,0.0,-859.0,-270.0,1,1
137,344.3732,-14264.5610,-13920.1878,14265.0278,344.8400,0.3001,345.1402,0.3668,-275,0.0167,275,0.0177,0;0.5;0,1,344.7448,1.0,857.0,-420.0,1,1
138,345.5070,-14265.6947,-13920.1878,14266.3283,346.1406,0.3001,346.4407,0.3668,275,0.0088,-275,0.0759,0;0.5;0,0,346.0537,0.0,-865.0,-273.0,1,1
139,346.8075,-14266.9953,-13920.1878,14267.7289,347.5411,0.3001,347.8412,0.3668,275,0.0167,-275,0.0402,0;0.5;0,0,347.4541,0.0,-860.0,-265.0,1,1
140,348.2081,-14268.3958,-13920.1878,14269.3629,349.1751,0.3001,349.4752,0.3668,275,0,-275,0.0029,1;0;0,0,349.0800,1.0,844.0,-434.0,1,0
141,349.8421,-14270.0298,-13920.1878,14270.7968,350.6090,0.3001,350.9092,0.3668,275,0.0167,-275,0.0402,0;0.5;0,0,350.5222,0.0,-870.0,-292.0,1,1
142,351.2760,-14271.4638,-13920.1878,14272.1974,352.0096,0.3001,352.3097,0.3668,-275,0.05,275,0.0529,0;0.5;0,1,351.9227,1.0,861.0,-431.0,1,1
143,352.6765,-14272.8643,-13920.1878,14273.5479,353.3602,0.3001,353.6603,0.3668,-275,0.2,275,0.2082,1;0;0,1,353.2649,0.0,-866.0,-278.0,1,0
144,354.0271,-14274.2149,-13920.1878,14275.4487,355.2609,0.3001,355.5610,0.3668,-275,0.0088,275,0.0098,0;0.5;0,1,355.1740,1.0,864.0,-387.0,1,1
145,355.9279,-14276.1156,-13920.1878,14276.7492,356.5614,0.3001,356.8616,0.3668,-275,0.45,275,1,0;0.5;0,1,356.4746,1.0,899.0,-214.0,1,1
146,357.2284,-14277.4162,-13920.1878,14278.2999,358.1121,0.3001,358.4122,0.3668,275,0.0088,-275,0.0098,1;0;0,0,358.0167,1.0,948.0,-165.0,1,0
147,358.7790,-14278.9668,-13920.1878,14279.5670,359.3793,0.3001,359.6794,0.3668,275,0.0167,-275,0.0838,0;0.5;0,0,359.2926,0.0,-874.0,-272.0,1,1
148,360.0462,-14280.2340,-13920.1878,14280.9176,360.7298,0.3001,361.0299,0.3668,-275,0.05,275,0.2421,0;0.5;0,1,360.6348,1.0,950.0,-210.0,1,1
149,361.3967,-14281.5845,-13920.1878,14283.4019,363.2141,0.3001,363.5143,0.3668,275,0,-275,0.0235,1;0;0,0,363.1275,1.0,944.0,-191.0,1,0
150,363.8811,-14284.0689,-13920.1878,14284.7858,364.5980,0.3001,364.8982,0.3668,-275,0.0167,275,0.0249,0;0.5;0,1,364.5110,1.0,930.0,-233.0,1,1
151,365.2650,-14285.4528,-13920.1878,14285.9863,365.7985,0.3001,366.0986,0.3668,-275,0,275,0.0671,0;0.5;0,1,365.7117,1.0,938.0,-234.0,1,1
152,366.4655,-14286.6532,-13920.1878,14287.4202,367.2324,0.3001,367.5326,0.3668,275,0.05,-275,0.0582,0;0.5;0,0,367.1456,0.0,-876.0,-396.0,1,1
153,367.8994,-14288.0872,-13920.1878,14289.1709,368.9831,0.3001,369.2833,0.3668,275,0,-275,0.0029,1;0;0,0,368.8962,1.0,909.0,-264.0,1,0
154,369.6501,-14289.8379,-13920.1878,14290.6048,370.4171,0.3001,370.7172,0.3668,-275,0.0167,275,0.0196,1;0;0,1,370.3304,0.0,-908.0,-346.0,1,0
155,371.0840,-14291.2718,-13920.1878,14291.8887,371.7009,0.3001,372.0010,0.3668,-275,0,275,0.0082,0;0.5;0,1,371.6140,1.0,917.0,-256.0,1,1
156,372.3679,-14292.5556,-13920.1878,14293.0558,372.8681,0.3001,373.1682,0.3668,-275,0.45,275,1,0;0.5;0,1,372.7727,1.0,910.0,-272.0,1,1
157,373.5350,-14293.7228,-13920.1878,14294.1896,374.0018,0.3001,374.3020,0.3668,-275,0.05,275,0.1171,0;0.5;0,1,373.9150,1.0,916.0,-259.0,1,1
158,374.6688,-14294.8566,-13920.1878,14295.3067,375.1190,0.3001,375.4191,0.3668,275,0,-275,0.0082,1;0;0,0,375.0320,1.0,924.0,-254.0,1,0
159,375.7859,-14295.9737,-13920.1878,14296.5239,376.3361,0.3001,376.6362,0.3668,-275,0.05,275,0.0582,0;0.5;0,1,376.2409,1.0,922.0,-254.0,1,1
160,377.0031,-14297.1908,-13920.1878,14297.6410,377.4532,0.3001,377.7534,0.3668,275,0.0167,-275,0.2088,0;0.5;0,0,377.3664,0.0,-911.0,-296.0,1,1
161,378.1202,-14298.3080,-13920.1878,14298.8082,378.6204,0.3001,378.9205,0.3668,275,0.2,-275,0.75,0;0.5;0,0,378.5334,0.0,-908.0,-291.0,1,1
162,379.2873,-14299.4751,-13920.1878,14300.8256,380.6379,0.3001,380.9380,0.3668,275,0.05,-275,0.0529,1;0;0,0,380.5510,1.0,916.0,-272.0,1,0
163,381.3048,-14301.4926,-13920.1878,14303.4600,383.2723,0.3001,383.5724,0.3668,275,0.05,-275,0.0582,0;0.5;0,0,383.1855,0.0,-914.0,-293.0,1,1
164,383.9392,-14304.1270,-13920.1878,14304.6439,384.4561,0.3001,384.7562,0.3668,-275,0.45,275,1,0;0.5;0,1,384.3609,1.0,903.0,-255.0,1,1
165,385.1230,-14305.3108,-13920.1878,14305.8777,385.6899,0.3001,385.9900,0.3668,275,0.0167,-275,0.0838,0;0.5;0,0,385.5947,0.0,-929.0,-278.0,1,1
166,386.3569,-14306.5446,-13920.1878,14307.0282,386.8404,0.3001,387.1405,0.3668,275,0.2,-275,0.75,0;0.5;0,0,386.7452,0.0,-923.0,-309.0,1,1
167,387.5073,-14307.6951,-13920.1878,14308.0786,387.8908,0.3001,388.1909,0.3668,275,0.2,-275,0.3921,1;0;0,0,387.7955,1.0,829.0,-349.0,1,0
168,388.5577,-14308.7455,-13920.1878,14309.3624,389.1747,0.3001,389.4748,0.3668,275,0.2,-275,0.2671,0;0.5;0,0,389.0877,0.0,-801.0,-282.0,1,1
169,389.8416,-14310.0294,-13920.1878,14310.6630,390.4752,0.3001,390.7753,0.3668,-275,0.0088,275,0.0117,1;0;0,1,390.3883,0.0,-829.0,-354.0,1,0
170,391.1421,-14311.3299,-13920.1878,14311.8468,391.6590,0.3001,391.9591,0.3668,275,0.0167,-275,0.0838,0;0.5;0,0,391.5720,0.0,-834.0,-345.0,1,1
171,392.3259,-14312.5137,-13920.1878,14314.3144,394.1267,0.3001,394.4268,0.3668,-275,0,275,0.0235,0;0.5;0,1,394.0399,1.0,441.0,-465.0,1,1
172,394.7936,-14314.9814,-13920.1878,14315.6150,395.4272,0.3001,395.7273,0.3668,-275,0.0167,275,0.0838,0;0.5;0,1,395.3403,1.0,408.0,-482.0,1,1
173,396.0941,-14316.2819,-13920.1878,14317.0155,396.8278,0.3001,397.1279,0.3668,275,0.05,-275,0.0735,0;0.5;0,0,396.7326,0.0,-816.0,-428.0,1,1
174,397.4947,-14317.6825,-13920.1878,14318.0993,397.9115,0.3001,398.2117,0.3668,-275,0.45,275,0.4735,0;0.5;0,1,397.8247,1.0,634.0,-476.0,1,1
175,398.5785,-14318.7662,-13920.1878,14319.7500,399.5622,0.3001,399.8623,0.3668,-275,0.05,275,0.0735,0;0.5;0,1,399.4753,1.0,505.0,-457.0,1,1
176,400.2291,-14320.4169,-13920.1878,14321.1672,400.9794,0.3001,401.2796,0.3668,275,0.0167,-275,0.0249,1;0;0,0,400.8926,1.0,502.0,-455.0,1,0
177,401.6464,-14321.8342,-13920.1878,14322.3510,402.1633,0.3001,402.4634,0.3668,275,0.05,-275,0.1171,0;0.5;0,0,402.0680,0.0,-840.0,-360.0,1,1
178,402.8302,-14323.0180,-13920.1878,14323.4681,403.2804,0.3001,403.5805,0.3668,-275,0,275,0.1921,0;0.5;0,1,403.1936,1.0,511.0,-426.0,1,1
179,403.9473,-14324.1351,-13920.1878,14324.6186,404.4308,0.3001,404.7310,0.3668,-275,0.2,275,0.3921,1;0;0,1,404.3356,0.0,-838.0,-354.0,1,0
180,405.0978,-14325.2856,-13920.1878,14325.8691,405.6813,0.3001,405.9815,0.3668,275,0.45,-275,0.4735,0;0.5;0,0,405.5945,0.0,-847.0,-340.0,1,1
181,406.3483,-14326.5361,-13920.1878,14327.0196,406.8318,0.3001,407.1319,0.3668,-275,0.45,275,1,0;0.5;0,1,406.7366,1.0,476.0,-471.0,1,1
182,407.4987,-14327.6865,-13920.1878,14329.4372,409.2495,0.3001,409.5496,0.3668,-275,0.0167,275,0.0402,1;0;0,1,409.1544,0.0,-857.0,-321.0,1,0
183,409.9164,-14330.1042,-13920.1878,14330.8711,410.6834,0.3001,410.9835,0.3668,-275,0.0088,275,0.0759,1;0;0,1,410.5882,0.0,-865.0,-313.0,1,0
184,411.3503,-14331.5381,-13920.1878,14332.2384,412.0506,0.3001,412.3507,0.3668,275,0.45,-275,0.4735,0;0.5;0,0,411.9637,0.0,-865.0,-316.0,1,1
185,412.7175,-14332.9053,-13920.1878,14333.6556,413.4678,0.3001,413.7680,0.3668,275,0.0167,-275,0.0177,1;0;0,0,413.3726,1.0,528.0,-408.0,1,0
186,414.1348,-14334.3225,-13920.1878,14335.0728,414.8851,0.3001,415.1852,0.3668,275,0.0167,-275,0.0196,0;0.5;0,0,414.7984,0.0,-865.0,-320.0,1,1
187,415.5520,-14335.7398,-13920.1878,14336.4734,416.2856,0.3001,416.5858,0.3668,-275,0.05,275,0.0529,0;0.5;0,1,416.1989,1.0,523.0,-425.0,1,1
188,416.9526,-14337.1404,-13920.1878,14338.1741,417.9863,0.3001,418.2864,0.3668,275,0,-275,0.0082,0;0.5;0,0,417.8910,0.0,-870.0,-313.0,1,1
189,418.6533,-14338.8410,-13920.1878,14339.3246,419.1368,0.3001,419.4369,0.3668,275,0.2,-275,0.2082,0;0.5;0,0,419.0499,0.0,-866.0,-316.0,1,1
190,419.8037,-14339.9915,-13920.1878,14341.5755,421.3877,0.3001,421.6878,0.3668,275,0,-275,0.001,0;0.5;0,0,421.3007,0.0,-868.0,-325.0,1,1
191,422.0546,-14342.2424,-13920.1878,14344.5767,424.3889,0.3001,424.6890,0.3668,275,0.45,-275,0.6421,1;0;0,0,424.3019,1.0,823.0,-555.0,1,0
192,425.0559,-14345.2436,-13920.1878,14345.8272,425.6394,0.3001,425.9395,0.3668,-275,0.45,275,0.5171,0;0.5;0,1,425.5443,1.0,804.0,-474.0,1,1
193,426.3064,-14346.4941,-13920.1878,14347.8113,427.6236,0.3001,427.9237,0.3668,-275,0.2,275,0.3921,0;0.5;0,1,427.5282,1.0,810.0,-494.0,1,1
194,428.2905,-14348.4783,-13920.1878,14348.8951,428.7073,0.3001,429.0075,0.3668,-275,0.2,275,1,0;0.5;0,1,428.6121,1.0,801.0,-488.0,1,1
195,429.3743,-14349.5620,-13920.1878,14351.8463,431.6585,0.3001,431.9586,0.3668,275,0,-275,0.0082,1;0;0,0,431.5632,1.0,817.0,-473.0,1,0
196,432.3255,-14352.5132,-13920.1878,14353.0468,432.8590,0.3001,433.1591,0.3668,-275,0,275,0.0671,0;0.5;0,1,432.7722,1.0,819.0,-479.0,1,1
197,433.5259,-14353.7137,-13920.1878,14354.1806,433.9928,0.3001,434.2929,0.3668,275,0,-275,0.0671,0;0.5;0,0,433.8977,0.0,-902.0,-474.0,1,1
198,434.6597,-14354.8475,-13920.1878,14355.2477,435.0599,0.3001,435.3600,0.3668,275,0.05,-275,0.1171,1;0;0,0,434.9648,1.0,824.0,-483.0,1,0
199,435.7268,-14355.9146,-13920.1878,14356.4648,436.2771,0.3001,436.5772,0.3668,275,0.0167,-275,0.0402,0;0.5;0,0,436.1819,0.0,-916.0,-488.0,1,1
200,436.9440,-14357.1318,-13920.1878,14357.5986,437.4109,0.3001,437.7110,0.3668,275,0.45,-275,0.5171,0;0.5;0,0,437.3241,0.0,-908.0,-477.0,1,1
201,438.0778,-14358.2656,-13920.1878,14358.8992,438.7114,0.3001,439.0115,0.0000,-275,0.0088,275,0.0117,1;0;0,1,438.6161,0.0,-900.0,-493.0,1,0
202,439.0115,-14359.1993,-13920.1878,14359.6161,439.4283,0.3001,439.7285,0.3668,275,0.2,-275,0.75,1;0;0,0,439.3413,1.0,825.0,-484.0,1,0
203,440.0953,-14360.2831,-13920.1878,14361.2501,441.0623,0.3001,441.3625,0.3668,-275,0.2,275,0.2082,0;0.5;0,1,440.9671,1.0,828.0,-477.0,1,1
204,441.7293,-14361.9170,-13920.1878,14362.5506,442.3629,0.3001,442.6630,0.3668,-275,0.05,275,0.1171,0;0.5;0,1,442.2679,1.0,840.0,-463.0,1,1
205,443.0298,-14363.2176,-13920.1878,14363.8512,443.6634,0.3001,443.9635,0.3668,275,0.2,-275,1,0;0.5;0,0,443.5681,0.0,-908.0,-495.0,1,1
206,444.3303,-14364.5181,-13920.1878,14365.3351,445.1473,0.3001,445.4474,0.3668,-275,0.05,275,0.0529,0;0.5;0,1,445.0604,1.0,831.0,-472.0,1,1
207,445.8143,-14366.0020,-13920.1878,14366.4522,446.2644,0.3001,446.5646,0.3668,275,0.0088,-275,0.2009,0;0.5;0,0,446.1775,0.0,-913.0,-487.0,1,1
208,446.9314,-14367.1192,-13920.1878,14368.4030,448.2152,0.3001,448.5154,0.3668,-275,0.0167,275,0.0249,1;0;0,1,448.1284,0.0,-921.0,-455.0,1,0
209,448.8822,-14369.0699,-13920.1878,14369.5868,449.3990,0.3001,449.6992,0.3668,275,0.0167,-275,0.0196,1;0;0,0,449.3039,1.0,837.0,-462.0,1,0
210,450.0660,-14370.2538,-13920.1878,14371.3209,451.1331,0.3001,451.4332,0.3668,275,0.45,-275,0.4582,0;0.5;0,0,451.0380,0.0,-912.0,-460.0,1,1
211,451.8000,-14371.9878,-13920.1878,14372.7881,452.6003,0.3001,452.9005,0.3668,-275,0.45,275,0.4582,0;0.5;0,1,452.5051,1.0,845.0,-454.0,1,1
212,453.2673,-14373.4551,-13920.1878,14374.2720,454.0843,0.3001,454.3844,0.3668,-275,0,275,0.1921,0;0.5;0,1,453.9891,1.0,874.0,-409.0,1,1
213,454.7512,-14374.9390,-13920.1878,14376.5396,456.3519,0.3001,456.6520,0.3668,275,0.0088,-275,0.0323,0;0.5;0,0,456.2649,0.0,-597.0,-405.0,1,1
214,457.0188,-14377.2066,-13920.1878,14378.0069,457.8191,0.3001,458.1192,0.3668,275,0.05,-275,0.6,0;0.5;0,0,457.7322,0.0,-567.0,-407.0,1,1
215,458.4861,-14378.6738,-13920.1878,14380.3578,460.1701,0.3001,460.4702,0.3668,275,0.0167,-275,0.0196,0;0.5;0,0,460.0832,0.0,-992.0,-616.0,1,1
216,460.8370,-14381.0248,-13920.1878,14381.3749,461.1871,0.3001,461.4873,0.3668,275,0.0088,-275,0.0098,1;0;0,0,461.0921,1.0,937.0,-480.0,1,0
217,461.8541,-14382.0419,-13920.1878,14382.8255,462.6377,0.3001,462.9379,0.3668,275,0,-275,0.0235,0;0.5;0,0,462.5426,0.0,-937.0,-599.0,1,1
218,463.3047,-14383.4924,-13920.1878,14384.5762,464.3884,0.3001,464.6886,0.3668,275,0.2,-275,0.2671,0;0.5;0,0,464.2933,0.0,-932.0,-611.0,1,1
219,465.0554,-14385.2432,-13920.1878,14387.0772,466.8895,0.3001,467.1896,0.3668,-275,0.2,275,0.2082,1;0;0,1,466.7944,0.0,-1006.0,-662.0,1,0
220,467.5564,-14387.7442,-13920.1878,14388.3444,468.1566,0.3001,468.4568,0.3668,275,0.2,-275,1,0;0.5;0,0,468.0697,0.0,-988.0,-744.0,1,1
221,468.8236,-14389.0113,-13920.1878,14390.1785,469.9907,0.3001,470.2908,0.3668,275,0.0088,-275,0.017,1;0;0,0,469.9039,1.0,876.0,-555.0,1,0
222,470.6576,-14390.8454,-13920.1878,14391.6791,471.4913,0.3001,471.7914,0.3668,275,0.05,-275,0.1171,1;0;0,0,471.3962,1.0,872.0,-560.0,1,0
223,472.1583,-14392.3460,-13920.1878,14392.6795,472.4917,0.3001,472.7918,0.3668,-275,0.0167,275,0.0196,1;0;0,1,472.4050,0.0,-923.0,-592.0,1,0
224,473.1587,-14393.3464,-13920.1878,14393.6466,473.4588,0.3001,473.7589,0.3668,-275,0.45,275,0.6421,1;0;0,1,473.3634,0.0,-935.0,-589.0,1,0
225,474.1257,-14394.3135,-13920.1878,14396.7812,476.5934,0.3001,476.8935,0.3710,275,0,-275,0.0235,0;0.5;0,0,476.4982,0.0,-912.0,-628.0,1,1
226,477.2645,-14397.4523,-13920.1878,14398.3151,478.1273,0.3001,478.4275,0.3668,-275,0.0088,275,0.0759,0;0.5;0,1,478.0321,1.0,874.0,-638.0,1,1
227,478.7943,-14398.9820,-13920.1878,14399.4823,479.2945,0.3001,479.5946,0.3668,275,0.45,-275,1,0;0.5;0,0,479.1993,0.0,-908.0,-633.0,1,1
228,479.9614,-14400.1492,-13920.1878,14402.5502,482.3624,0.3001,482.6625,0.3668,275,0.0088,-275,0.017,1;0;0,0,482.2672,1.0,855.0,-661.0,1,0
229,483.0293,-14403.2171,-13920.1878,14404.1842,483.9964,0.3001,484.2965,0.3668,-275,0.0088,275,0.0098,0;0.5;0,1,483.9012,1.0,874.0,-666.0,1,1
230,484.6633,-14404.8511,-13920.1878,14405.4680,485.2802,0.3001,485.5803,0.3668,-275,0.2,275,0.3921,1;0;0,1,485.1850,0.0,-925.0,-661.0,1,0
231,485.9472,-14406.1349,-13920.1878,14406.7185,486.5307,0.3001,486.8309,0.3668,-275,0.05,275,0.2421,0;0.5;0,1,486.4439,1.0,892.0,-637.0,1,1
232,487.1977,-14407.3854,-13920.1878,14408.0524,487.8646,0.3001,488.1647,0.3668,-275,0.0167,275,0.0196,0;0.5;0,1,487.7779,1.0,874.0,-691.0,1,1
233,488.5315,-14408.7193,-13920.1878,14409.5530,489.3652,0.3001,489.6653,0.3668,-275,0.45,275,0.4735,1;0;0,1,489.2782,0.0,-893.0,-662.0,1,0
234,490.0322,-14410.2199,-13920.1878,14410.6534,490.4657,0.3001,490.7658,0.3668,275,0.05,-275,0.0582,0;0.5;0,0,490.3705,0.0,-894.0,-676.0,1,1
235,491.1326,-14411.3204,-13920.1878,14411.9039,491.7162,0.3001,492.0163,0.3668,275,0.05,-275,0.0529,1;0;0,0,491.6293,1.0,884.0,-715.0,1,0
236,492.3831,-14412.5709,-13920.1878,14412.9710,492.7833,0.3001,493.0834,0.3668,275,0.0167,-275,0.2088,0;0.5;0,0,492.6882,0.0,-892.0,-656.0,1,1
237,493.4502,-14413.6380,-13920.1878,14414.1715,493.9837,0.3001,494.2839,0.3668,275,0,-275,0.001,0;0.5;0,0,493.8969,0.0,-898.0,-653.0,1,1
238,494.6507,-14414.8385,-13920.1878,14415.4220,495.2343,0.3001,495.5344,0.3668,275,0.05,-275,0.0735,1;0;0,0,495.1390,1.0,873.0,-712.0,1,0
239,495.9012,-14416.0890,-13920.1878,14416.5892,496.4014,0.3001,496.7015,0.3668,-275,0.0088,275,0.2009,1;0;0,1,496.3145,0.0,-905.0,-669.0,1,0
240,497.0683,-14417.2561,-13920.1878,14418.1065,497.9187,0.3001,498.2188,0.3668,-275,0.45,275,0.6421,1;0;0,1,497.8233,0.0,-889.0,-690.0,1,0
241,498.5856,-14418.7734,-13920.1878,14419.7738,499.5860,0.3001,499.8861,0.3668,-275,0.05,275,0.0735,0;0.5;0,1,499.4991,1.0,950.0,-576.0,1,1
242,500.2530,-14420.4407,-13920.1878,14421.3411,501.1533,0.3001,501.4534,0.3668,-275,0,275,0.0029,1;0;0,1,501.0579,0.0,-916.0,-242.0,1,0
243,501.8203,-14422.0080,-13920.1878,14422.7417,502.5539,0.3001,502.8540,0.3668,275,0.45,-275,0.5171,1;0;0,0,502.4670,1.0,932.0,-505.0,1,0
244,503.2208,-14423.4086,-13920.1878,14423.8254,503.6377,0.3001,503.9378,0.3668,-275,0.0088,275,0.0098,1;0;0,1,503.5509,0.0,-894.0,-244.0,1,0
245,504.3046,-14424.4924,-13920.1878,14424.8258,504.6381,0.3001,504.9382,0.3668,275,0.0088,-275,0.017,0;0.5;0,0,504.5510,0.0,-906.0,-214.0,1,1
246,505.3050,-14425.4928,-13920.1878,14426.1764,505.9886,0.3001,506.2887,0.3668,275,0.45,-275,0.4735,0;0.5;0,0,505.8935,0.0,-904.0,-220.0,1,1
247,506.6555,-14426.8433,-13920.1878,14427.4102,507.2224,0.3001,507.5226,0.3668,275,0.05,-275,0.0582,1;0;0,0,507.1273,1.0,917.0,-549.0,1,0
248,507.8894,-14428.0772,-13920.1878,14428.6440,508.4563,0.3001,508.7564,0.3668,-275,0.0088,275,0.0117,1;0;0,1,508.3610,0.0,-926.0,-245.0,1,0
249,509.1232,-14429.3110,-13920.1878,14429.6778,509.4900,0.3001,509.7901,0.3668,275,0.0167,-275,0.0249,0;0.5;0,0,509.3950,0.0,-927.0,-240.0,1,1
250,510.1570,-14430.3447,-13920.1878,14430.9450,510.7572,0.3001,511.0573,0.3668,275,0,-275,0.0082,1;0;0,0,510.6703,1.0,864.0,-627.0,1,0
251,511.4241,-14431.6119,-13920.1878,14431.7120,511.5242,0.3001,511.8243,0.3668,-275,0.0167,275,0.2088,1;0;0,1,511.4291,0.0,-904.0,-239.0,1,0
252,512.1911,-14432.3789,-13920.1878,14432.6957,512.5079,0.3001,512.8080,0.3668,-275,0.0167,275,0.0177,0;0.5;0,1,512.4211,1.0,855.0,-647.0,1,1
253,513.1748,-14433.3626,-13920.1878,14434.0462,513.8585,0.3001,514.1586,0.3668,-275,0.05,275,0.1171,0;0.5;0,1,513.7716,1.0,821.0,-383.0,1,1
254,514.5254,-14434.7132,-13920.1878,14435.5302,515.3424,0.3001,515.6425,0.3668,275,0.0088,-275,0.0323,1;0;0,0,515.2473,1.0,847.0,-473.0,1,0
255,516.0093,-14436.1971,-13920.1878,14436.7973,516.6096,0.3001,516.9097,0.3668,-275,0.0167,275,0.0402,0;0.5;0,1,516.5143,1.0,903.0,-570.0,1,1
256,517.2765,-14437.4643,-13920.1878,14438.2146,518.0268,0.3001,518.3269,0.3668,-275,0.45,275,0.6421,0;0.5;0,1,517.9317,1.0,845.0,-494.0,1,1
257,518.6937,-14438.8815,-13920.1878,14439.3817,519.1939,0.3001,519.4941,0.3668,-275,0.45,275,0.4582,1;0;0,1,519.1071,0.0,-921.0,-311.0,1,0
258,519.8609,-14440.0487,-13920.1878,14440.5322,520.3444,0.3001,520.6445,0.3668,-275,0.45,275,1,0;0.5;0,1,520.2577,1.0,850.0,-558.0,1,1
259,521.0113,-14441.1991,-13920.1878,14442.0495,521.8617,0.3001,522.1618,0.3668,275,0.0167,-275,0.0249,1;0;0,0,521.7664,1.0,812.0,-539.0,1,0
260,522.5286,-14442.7164,-13920.1878,14443.5501,523.3623,0.3001,523.6624,0.3668,275,0.2,-275,0.75,0;0.5;0,0,523.2755,0.0,-928.0,-304.0,1,1
261,524.0292,-14444.2170,-13920.1878,14444.8506,524.6628,0.3001,524.9629,0.3668,275,0.2,-275,1,0;0.5;0,0,524.5758,0.0,-913.0,-399.0,1,1
262,525.3298,-14445.5175,-13920.1878,14446.2678,526.0801,0.3001,526.3802,0.3668,275,0.05,-275,0.2421,0;0.5;0,0,525.9851,0.0,-925.0,-434.0,1,1
263,526.7470,-14446.9348,-13920.1878,14447.6017,527.4139,0.3001,527.7141,0.3668,-275,0.0088,275,0.0759,0;0.5;0,1,527.3186,1.0,661.0,-515.0,1,1
264,528.0809,-14448.2687,-13920.1878,14448.8355,528.6478,0.3001,528.9479,0.3668,-275,0.2,275,0.2235,0;0.5;0,1,528.5608,1.0,691.0,-457.0,1,1
265,529.3147,-14449.5025,-13920.1878,14450.0194,529.8316,0.3001,530.1317,0.3668,-275,0.0088,275,0.0759,0;0.5;0,1,529.7447,1.0,730.0,-426.0,1,1
266,530.4985,-14450.6863,-13920.1878,14451.8534,531.6657,0.3001,531.9658,0.3668,-275,0.0088,275,0.0117,0;0.5;0,1,531.5788,1.0,685.0,-526.0,1,1
267,532.3326,-14452.5204,-13920.1878,14453.9209,533.7332,0.3001,534.0333,0.3668,-275,0.2,275,1,0;0.5;0,1,533.6380,1.0,774.0,-426.0,1,1
268,534.4001,-14454.5879,-13920.1878,14455.3882,535.2004,0.3001,535.5005,0.3668,275,0.05,-275,0.0582,1;0;0,0,535.1136,1.0,697.0,-501.0,1,0
269,535.8674,-14456.0551,-13920.1878,14456.5887,536.4009,0.3001,536.7010,0.3668,-275,0.45,275,0.4582,0;0.5;0,1,536.3140,1.0,657.0,-499.0,1,1
270,537.0678,-14457.2556,-13920.1878,14457.9559,537.7681,0.3001,538.0682,0.3668,275,0,-275,0.001,0;0.5;0,0,537.6728,0.0,-925.0,-428.0,1,1
271,538.4351,-14458.6228,-13920.1878,14459.0897,538.9019,0.3001,539.2020,0.3668,275,0.05,-275,0.2421,0;0.5;0,0,538.8152,0.0,-931.0,-455.0,1,1
272,539.5689,-14459.7566,-13920.1878,14460.4569,540.2691,0.3001,540.5693,0.3668,-275,0.0088,275,0.0098,0;0.5;0,1,540.1739,1.0,585.0,-587.0,1,1
273,540.9361,-14461.1239,-13920.1878,14461.5740,541.3863,0.3001,541.6864,0.3668,275,0,-275,0.0671,0;0.5;0,0,541.2911,0.0,-913.0,-447.0,1,1
274,542.0532,-14462.2410,-13920.1878,14462.7245,542.5367,0.3001,542.8368,0.3668,-275,0.0167,275,0.0402,0;0.5;0,1,542.4416,1.0,559.0,-642.0,1,1
275,543.2037,-14463.3914,-13920.1878,14464.5252,544.3374,0.3001,544.6376,0.3668,-275,0.05,275,0.0735,0;0.5;0,1,544.2507,1.0,581.0,-609.0,1,1
276,545.0044,-14465.1922,-13920.1878,14465.6423,545.4546,0.3001,545.7547,0.3668,-275,0.0167,275,0.0177,1;0;0,1,545.3593,0.0,-907.0,-396.0,1,0
277,546.1215,-14466.3093,-13920.1878,14466.4093,546.2215,0.3001,546.5217,0.3668,-275,0,275,0.0235,1;0;0,1,546.1347,0.0,-906.0,-399.0,1,0
278,546.8885,-14467.0763,-13920.1878,14467.2096,547.0219,0.3001,547.3220,0.3668,275,0.2,-275,1,0;0.5;0,0,546.9268,0.0,-905.0,-398.0,1,1
279,547.6888,-14467.8766,-13920.1878,14468.6769,548.4891,0.3001,548.7892,0.3668,-275,0.0167,275,0.0838,1;0;0,1,548.3940,0.0,-908.0,-404.0,1,0
280,549.1561,-14469.3438,-13920.1878,14469.7440,549.5562,0.3001,549.8563,0.3668,-275,0.05,275,0.0735,1;0;0,1,549.4609,0.0,-913.0,-421.0,1,0
281,550.2232,-14470.4109,-13920.1878,14471.3613,551.1735,0.3001,551.4737,0.3668,-275,0.0167,275,0.0402,0;0.5;0,1,551.0866,1.0,566.0,-625.0,1,1
282,551.8405,-14472.0283,-13920.1878,14472.7285,552.5408,0.3001,552.8409,0.3668,-275,0.2,275,0.2235,0;0.5;0,1,552.4456,1.0,556.0,-579.0,1,1
283,553.2077,-14473.3955,-13920.1878,14474.4626,554.2748,0.3001,554.5749,0.3668,-275,0,275,0.0029,0;0.5;0,1,554.1880,1.0,490.0,-581.0,1,1
284,554.9417,-14475.1295,-13920.1878,14475.6130,555.4253,0.3001,555.7254,0.3668,-275,0.0167,275,0.0402,1;0;0,1,555.3385,0.0,-964.0,-450.0,1,0
285,556.0922,-14476.2800,-13920.1878,14476.7468,556.5591,0.3001,556.8592,0.3668,275,0.0088,-275,0.017,1;0;0,0,556.4722,1.0,565.0,-485.0,1,0
286,557.2260,-14477.4138,-13920.1878,14477.6639,557.4761,0.3001,557.7762,0.3668,-275,0.2,275,0.75,0;0.5;0,1,557.3808,1.0,581.0,-450.0,1,1
287,558.1430,-14478.3308,-13920.1878,14479.0311,558.8433,0.3001,559.1434,0.3668,275,0.45,-275,0.4582,0;0.5;0,0,558.7481,0.0,-933.0,-460.0,1,1
288,559.5103,-14479.6980,-13920.1878,14480.2983,560.1105,0.3001,560.4106,0.3668,-275,0,275,0.0235,1;0;0,1,560.0239,0.0,-932.0,-424.0,1,0
289,560.7774,-14480.9652,-13920.1878,14481.1319,560.9442,0.3001,561.2443,0.3668,-275,0.45,275,0.6421,1;0;0,1,560.8490,0.0,-934.0,-457.0,1,0
290,561.6111,-14481.7989,-13920.1878,14482.5825,562.3948,0.3001,562.6949,0.3668,275,0.2,-275,0.2235,1;0;0,0,562.2994,1.0,624.0,-483.0,1,0
291,563.0617,-14483.2495,-13920.1878,14483.8330,563.6453,0.3001,563.9454,0.3668,275,0.2,-275,0.3921,0;0.5;0,0,563.5501,0.0,-930.0,-439.0,1,1
292,564.3122,-14484.5000,-13920.1878,14485.2003,565.0125,0.3001,565.3126,0.3668,-275,0.0167,275,0.0249,0;0.5;0,1,564.9173,1.0,554.0,-567.0,1,1
293,565.6794,-14485.8672,-13920.1878,14486.1840,565.9962,0.3001,566.2963,0.3668,-275,0.0088,275,0.0323,0;0.5;0,1,565.9095,1.0,531.0,-557.0,1,1
294,566.6631,-14486.8509,-13920.1878,14487.2678,567.0800,0.3001,567.3801,0.3668,275,0.0088,-275,0.0759,1;0;0,0,566.9932,1.0,526.0,-580.0,1,0
295,567.7469,-14487.9347,-13920.1878,14488.1014,567.9136,0.3001,568.2138,0.3668,275,0.2,-275,0.3921,0;0.5;0,0,567.8184,0.0,-910.0,-408.0,1,1
296,568.5806,-14488.7684,-13920.1878,14490.1689,569.9812,0.3001,570.2813,0.3668,-275,0.45,275,0.6421,1;0;0,1,569.8942,0.0,-932.0,-440.0,1,0
297,570.6481,-14490.8359,-13920.1878,14491.4028,571.2150,0.3001,571.5151,0.3668,275,0.0167,-275,0.0838,0;0.5;0,0,571.1281,0.0,-941.0,-457.0,1,1
298,571.8819,-14492.0697,-13920.1878,14492.4865,572.2988,0.3001,572.5989,0.3668,275,0.0167,-275,0.0838,0;0.5;0,0,572.2118,0.0,-932.0,-429.0,1,1
299,572.9657,-14493.1535,-13920.1878,14493.6537,573.4659,0.3001,573.7660,0.3668,-275,0.05,275,0.0582,0;0.5;0,1,573.3792,1.0,583.0,-523.0,1,1
300,574.1328,-14494.3206,-13920.1878,14494.8875,574.6997,0.3001,574.9998,0.3668,275,0.0088,-275,0.0117,0;0.5;0,0,574.6044,0.0,-929.0,-407.0,1,1
301,575.3667,-14495.5544,-13920.1878,14496.3214,576.1336,0.3001,576.4338,0.3668,-275,0,275,0.0235,1;0;0,1,576.0383,0.0,-930.0,-417.0,1,0
302,576.8006,-14496.9884,-13920.1878,14497.2551,577.0674,0.3001,577.3675,0.3668,-275,0.2,275,1,0;0.5;0,1,576.9722,1.0,545.0,-644.0,1,1
303,577.7343,-14497.9221,-13920.1878,14498.4389,578.2512,0.3001,578.5513,0.3668,-275,0.2,275,1,0;0.5;0,1,578.1643,1.0,573.0,-572.0,1,1
304,578.9181,-14499.1059,-13920.1878,14499.3060,579.1182,0.3001,579.4183,0.3668,275,0.45,-275,1,0;0.5;0,0,579.0314,0.0,-929.0,-413.0,1,1
305,579.7851,-14499.9729,-13920.1878,14500.5064,580.3187,0.3001,580.6188,0.3668,275,0.2,-275,0.75,0;0.5;0,0,580.2234,0.0,-933.0,-419.0,1,1
306,580.9856,-14501.1734,-13920.1878,14501.9237,581.7359,0.3001,582.0360,0.3668,-275,0.05,275,0.2421,1;0;0,1,581.6408,0.0,-928.0,-422.0,1,0
307,582.4028,-14502.5906,-13920.1878,14502.7740,582.5862,0.3001,582.8864,0.3668,275,0,-275,0.0671,1;0;0,0,582.4993,1.0,529.0,-663.0,1,0
308,583.2532,-14503.4410,-13920.1878,14504.0245,583.8368,0.3001,584.1369,0.3668,275,0.2,-275,0.2671,0;0.5;0,0,583.7417,0.0,-934.0,-424.0,1,1
309,584.5037,-14504.6915,-13920.1878,14505.1417,584.9539,0.3001,585.2540,0.3668,275,0.0088,-275,0.0117,1;0;0,0,584.8671,1.0,532.0,-560.0,1,0
310,585.6208,-14505.8086,-13920.1878,14506.0420,585.8542,0.3001,586.1544,0.3668,-275,0.05,275,0.0582,1;0;0,1,585.7589,0.0,-981.0,-341.0,1,0
311,586.5212,-14506.7090,-13920.1878,14507.1591,586.9714,0.3001,587.2715,0.3668,-275,0,275,0.0671,0;0.5;0,1,586.8763,1.0,584.0,-513.0,1,1
312,587.6383,-14507.8261,-13920.1878,14508.5597,588.3719,0.3001,588.6720,0.3668,275,0,-275,0.0235,0;0.5;0,0,588.2850,0.0,-961.0,-351.0,1,1
313,589.0389,-14509.2266,-13920.1878,14509.6101,589.4223,0.3001,589.7225,0.3668,-275,0.45,275,0.5171,0;0.5;0,1,589.3354,1.0,523.0,-582.0,1,1
314,590.0893,-14510.2771,-13920.1878,14510.7106,590.5228,0.3001,590.8229,0.3668,-275,0.0088,275,0.2009,0;0.5;0,1,590.4360,1.0,576.0,-543.0,1,1
315,591.1897,-14511.3775,-13920.1878,14512.3446,592.1568,0.3001,592.4569,0.3668,-275,0.0088,275,0.0323,0;0.5;0,1,592.0616,1.0,599.0,-609.0,1,1
316,592.8237,-14513.0115,-13920.1878,14513.5617,593.3739,0.3001,593.6741,0.3668,-275,0.0088,275,0.2009,0;0.5;0,1,593.2788,1.0,620.0,-529.0,1,1
317,594.0409,-14514.2287,-13920.1878,14514.6455,594.4577,0.3001,594.7578,0.3668,-275,0.2,275,0.2671,0;0.5;0,1,594.3710,1.0,634.0,-534.0,1,1
318,595.1247,-14515.3124,-13920.1878,14515.5459,595.3581,0.3001,595.6582,0.3668,275,0,-275,0.001,0;0.5;0,0,595.2715,0.0,-947.0,-399.0,1,1
319,596.0250,-14516.2128,-13920.1878,14516.7964,596.6086,0.3001,596.9087,0.3668,-275,0.45,275,0.5171,1;0;0,1,596.5219,0.0,-947.0,-408.0,1,0
320,597.2755,-14517.4633,-13920.1878,14517.6134,597.4256,0.3001,597.7257,0.3668,-275,0.2,275,0.2082,0;0.5;0,1,597.3388,1.0,605.0,-558.0,1,1
321,598.0925,-14518.2803,-13920.1878,14518.8639,598.6761,0.3001,598.9762,0.3668,275,0.05,-275,0.6,0;0.5;0,0,598.5807,0.0,-919.0,-347.0,1,1
322,599.3430,-14519.5308,-13920.1878,14520.1310,599.9433,0.3001,600.2434,0.3668,275,0.45,-275,1,0;0.5;0,0,599.8479,0.0,-871.0,-192.0,1,1
323,600.6102,-14520.7980,-13920.1878,14521.2648,601.0771,0.3001,601.3772,0.3668,-275,0.2,275,1,0;0.5;0,1,600.9817,1.0,827.0,-364.0,1,1
324,601.7440,-14521.9318,-13920.1878,14524.6162,604.4284,0.3001,604.7285,0.3668,-275,0,275,0.001,1;0;0,1,604.3416,0.0,-905.0,-373.0,1,0
325,605.0953,-14525.2831,-13920.1878,14525.5832,605.3955,0.3001,605.6956,0.3668,275,0.0088,-275,0.0759,0;0.5;0,0,605.3004,0.0,-903.0,-342.0,1,1
326,606.0624,-14526.2502,-13920.1878,14526.8004,606.6126,0.3001,606.9127,0.3668,275,0,-275,0.0082,1;0;0,0,606.5175,1.0,830.0,-411.0,1,0
327,607.2796,-14527.4673,-13920.1878,14527.8675,607.6797,0.3001,607.9798,0.3668,-275,0.2,275,0.75,0;0.5;0,1,607.5929,1.0,826.0,-414.0,1,1
328,608.3467,-14528.5344,-13920.1878,14529.0513,608.8635,0.3001,609.1637,0.3668,275,0.05,-275,0.6,0;0.5;0,0,608.7767,0.0,-894.0,-335.0,1,1
329,609.5305,-14529.7183,-13920.1878,14530.1351,609.9473,0.3001,610.2474,0.3668,-275,0.2,275,0.3921,0;0.5;0,1,609.8520,1.0,832.0,-420.0,1,1
330,610.6142,-14530.8020,-13920.1878,14531.3689,611.1811,0.3001,611.4813,0.3668,275,0,-275,0.0671,0;0.5;0,0,611.0944,0.0,-903.0,-338.0,1,1
331,611.8481,-14532.0359,-13920.1878,14532.7028,612.5150,0.3001,612.8151,0.3668,-275,0.0167,275,0.0196,0;0.5;0,1,612.4197,1.0,830.0,-397.0,1,1
332,613.1819,-14533.3697,-13920.1878,14533.9199,613.7322,0.3001,614.0323,0.3668,-275,0.45,275,0.6421,0;0.5;0,1,613.6368,1.0,842.0,-390.0,1,1
333,614.3991,-14534.5869,-13920.1878,14535.0204,614.8326,0.3001,615.1327,0.3668,-275,0.05,275,0.1171,0;0.5;0,1,614.7373,1.0,830.0,-389.0,1,1
334,615.4996,-14535.6873,-13920.1878,14536.1709,615.9831,0.3001,616.2832,0.3668,-275,0,275,0.0671,0;0.5;0,1,615.8880,1.0,825.0,-401.0,1,1
335,616.6500,-14536.8378,-13920.1878,14537.4047,617.2169,0.3001,617.5170,0.3668,275,0.05,-275,0.1171,0;0.5;0,0,617.1217,0.0,-897.0,-330.0,1,1
336,617.8838,-14538.0716,-13920.1878,14538.4218,618.2340,0.3001,618.5341,0.3668,-275,0.2,275,1,0;0.5;0,1,618.1472,1.0,818.0,-407.0,1,1
337,618.9009,-14539.0887,-13920.1878,14539.5889,619.4011,0.3001,619.7013,0.3668,275,0,-275,0.0671,0;0.5;0,0,619.3060,0.0,-892.0,-337.0,1,1
338,620.0681,-14540.2558,-13920.1878,14540.9228,620.7350,0.3001,621.0351,0.3668,-275,0.0088,275,0.017,0;0.5;0,1,620.6481,1.0,829.0,-400.0,1,1
339,621.4019,-14541.5897,-13920.1878,14545.8581,625.6703,0.3001,625.9705,0.3668,-275,0.45,275,0.4582,1;0;0,1,625.5751,0.0,-913.0,-303.0,1,0
340,626.3373,-14546.5250,-13920.1878,14547.4921,627.3043,0.3001,627.6044,0.3668,-275,0,275,0.0082,0;0.5;0,1,627.2093,1.0,838.0,-416.0,1,1
341,627.9713,-14548.1590,-13920.1878,14548.2758,628.0880,0.3001,628.3881,0.3668,275,0,-275,0.0671,1;0;0,0,628.0011,1.0,897.0,-374.0,1,0
342,628.7549,-14548.9427,-13920.1878,14549.6263,629.4385,0.3001,629.7386,0.3668,-275,0,275,0.0235,0;0.5;0,1,629.3434,1.0,708.0,-182.0,1,1
343,630.1055,-14550.2932,-13920.1878,14551.0936,630.9058,0.3001,631.2059,0.3668,275,0.05,-275,0.0582,1;0;0,0,630.8190,1.0,682.0,-287.0,1,0
344,631.5727,-14551.7605,-13920.1878,14552.2107,632.0229,0.3001,632.3230,0.3668,275,0,-275,0.0029,0;0.5;0,0,631.9359,0.0,-865.0,-246.0,1,1
345,632.6898,-14552.8776,-13920.1878,14553.3278,633.1400,0.3001,633.4401,0.3668,-275,0,275,0.0671,0;0.5;0,1,633.0532,1.0,715.0,-271.0,1,1
346,633.8070,-14553.9947,-13920.1878,14554.5783,634.3905,0.3001,634.6906,0.3668,275,0.2,-275,0.2082,0;0.5;0,0,634.2952,0.0,-871.0,-273.0,1,1
347,635.0575,-14555.2452,-13920.1878,14555.7454,635.5577,0.3001,635.8578,0.3668,-275,0.05,275,0.2421,0;0.5;0,1,635.4707,1.0,720.0,-320.0,1,1
348,636.2246,-14556.4124,-13920.1878,14556.8459,636.6581,0.3001,636.9582,0.3668,275,0.05,-275,0.2421,0;0.5;0,0,636.5628,0.0,-866.0,-281.0,1,1
349,637.3250,-14557.5128,-13920.1878,14558.0297,637.8419,0.3001,638.1420,0.3668,275,0.0167,-275,0.0249,1;0;0,0,637.7466,1.0,720.0,-324.0,1,0
350,638.5089,-14558.6966,-13920.1878,14559.2135,639.0257,0.3001,639.3258,0.3668,275,0.45,-275,0.6421,0;0.5;0,0,638.9388,0.0,-870.0,-236.0,1,1
351,639.6927,-14559.8804,-13920.1878,14560.8308,640.6430,0.3001,640.9432,0.3668,-275,0.45,275,0.4582,1;0;0,1,640.5564,0.0,-941.0,-164.0,1,0
352,641.3100,-14561.4978,-13920.1878,14562.8150,642.6272,0.3001,642.9273,0.3668,-275,0.0167,275,0.0249,0;0.5;0,1,642.5403,1.0,765.0,-305.0,1,1
353,643.2941,-14563.4819,-13920.1878,14564.0655,643.8777,0.3001,644.1778,0.3668,-275,0.0088,275,0.0323,0;0.5;0,1,643.7907,1.0,707.0,-301.0,1,1
354,644.5446,-14564.7324,-13920.1878,14565.5661,645.3783,0.3001,645.6784,0.3668,275,0.0167,-275,0.0838,0;0.5;0,0,645.2832,0.0,-562.0,-352.0,1,1
355,646.0452,-14566.2330,-13920.1878,14567.1167,646.9289,0.3001,647.2290,0.3668,275,0.05,-275,0.0735,1;0;0,0,646.8419,1.0,913.0,-480.0,1,0
356,647.5959,-14567.7836,-13920.1878,14568.3505,648.1628,0.3001,648.4629,0.3668,-275,0.45,275,0.5171,0;0.5;0,1,648.0675,1.0,882.0,-572.0,1,1
357,648.8297,-14569.0175,-13920.1878,14569.4343,649.2465,0.3001,649.5466,0.3668,-275,0.2,275,0.2671,0;0.5;0,1,649.1513,1.0,878.0,-566.0,1,1
358,649.9135,-14570.1012,-13920.1878,14570.7515,650.5637,0.3001,650.8638,0.3668,275,0.2,-275,0.2235,0;0.5;0,0,650.4687,0.0,-944.0,-374.0,1,1
359,651.2307,-14571.4184,-13920.1878,14571.8019,651.6141,0.3001,651.9143,0.3668,-275,0.05,275,0.6,0;0.5;0,1,651.5274,1.0,886.0,-554.0,1,1
360,652.2811,-14572.4689,-13920.1878,14572.9524,652.7646,0.3001,653.0647,0.3668,-275,0.0088,275,0.0759,0;0.5;0,1,652.6779,1.0,870.0,-575.0,1,1
361,653.4315,-14573.6193,-13920.1878,14574.0528,653.8651,0.3001,654.1652,0.3668,275,0.05,-275,0.2421,0;0.5;0,0,653.7698,0.0,-944.0,-384.0,1,1
362,654.5320,-14574.7198,-13920.1878,14575.1366,654.9488,0.3001,655.2489,0.3668,-275,0.0167,275,0.2088,0;0.5;0,1,654.8618,1.0,888.0,-565.0,1,1
363,655.6158,-14575.8035,-13920.1878,14576.4205,656.2327,0.3001,656.5328,0.3668,275,0.45,-275,0.6421,0;0.5;0,0,656.1374,0.0,-959.0,-377.0,1,1
364,656.8996,-14577.0874,-13920.1878,14577.9211,657.7333,0.3001,658.0334,0.3668,-275,0.2,275,0.2235,1;0;0,1,657.6381,0.0,-951.0,-363.0,1,0
365,658.4002,-14578.5880,-13920.1878,14578.9381,658.7504,0.3001,659.0505,0.3668,275,0.05,-275,0.6,0;0.5;0,0,658.6635,0.0,-942.0,-406.0,1,1
366,659.4173,-14579.6051,-13920.1878,14580.1220,659.9342,0.3001,660.2343,0.3668,-275,0.2,275,0.2671,0;0.5;0,1,659.8389,1.0,852.0,-661.0,1,1
367,660.6011,-14580.7889,-13920.1878,14580.9890,660.8012,0.3001,661.1013,0.3668,-275,0.05,275,0.2421,0;0.5;0,1,660.7060,1.0,855.0,-666.0,1,1
368,661.4681,-14581.6559,-13920.1878,14582.2895,662.1017,0.3001,662.4018,0.3668,-275,0.45,275,0.5171,1;0;0,1,662.0149,0.0,-927.0,-411.0,1,0
369,662.7687,-14582.9564,-13920.1878,14583.3066,663.1188,0.3001,663.4189,0.3668,275,0.45,-275,0.6421,0;0.5;0,0,663.0318,0.0,-918.0,-462.0,1,1
370,663.7857,-14583.9735,-13920.1878,14584.5071,664.3193,0.3001,664.6194,0.3668,275,0,-275,0.0235,0;0.5;0,0,664.2239,0.0,-923.0,-385.0,1,1
371,664.9862,-14585.1740,-13920.1878,14586.0410,665.8532,0.3001,666.1534,0.3668,275,0.0167,-275,0.0249,1;0;0,0,665.7665,1.0,889.0,-414.0,1,0
372,666.5202,-14586.7079,-13920.1878,14587.1748,666.9870,0.3001,667.2871,0.3668,275,0,-275,0.0235,0;0.5;0,0,666.9001,0.0,-920.0,-379.0,1,1
373,667.6540,-14587.8417,-13920.1878,14588.4920,668.3042,0.3001,668.6043,0.3668,-275,0.45,275,0.4582,0;0.5;0,1,668.2090,1.0,874.0,-412.0,1,1
374,668.9712,-14589.1589,-13920.1878,14589.5924,669.4047,0.3001,669.7048,0.3668,275,0.45,-275,0.5171,1;0;0,0,669.3179,1.0,879.0,-439.0,1,0
375,670.0716,-14590.2594,-13920.1878,14591.3098,671.1220,0.3001,671.4222,0.3668,275,0.0167,-275,0.0249,0;0.5;0,0,671.0351,0.0,-919.0,-319.0,1,1
376,671.7890,-14591.9767,-13920.1878,14592.2769,672.0891,0.3001,672.3892,0.3668,275,0.45,-275,0.5171,1;0;0,0,671.9938,1.0,845.0,-461.0,1,0
377,672.7560,-14592.9438,-13920.1878,14593.5274,673.3396,0.3001,673.6397,0.3668,275,0.45,-275,0.5171,0;0.5;0,0,673.2528,0.0,-908.0,-206.0,1,1
378,674.0065,-14594.1943,-13920.1878,14594.6945,674.5067,0.3001,674.8069,0.3668,-275,0.05,275,0.6,0;0.5;0,1,674.4115,1.0,761.0,-172.0,1,1
379,675.1737,-14595.3614,-13920.1878,14597.2455,677.0578,0.3001,677.3579,0.3668,275,0,-275,0.0082,0;0.5;0,0,676.9708,0.0,-586.0,-483.0,1,1
380,677.7247,-14597.9125,-13920.1878,14598.4127,678.2249,0.3001,678.5250,0.3668,275,0.0088,-275,0.0323,0;0.5;0,0,678.1299,0.0,-736.0,-310.0,1,1
381,678.8918,-14599.0796,-13920.1878,14599.8132,679.6255,0.3001,679.9256,0.3668,275,0.0088,-275,0.0117,0;0.5;0,0,679.5303,0.0,-754.0,-378.0,1,1
382,680.2924,-14600.4802,-13920.1878,14601.0137,680.8260,0.3001,681.1261,0.3668,-275,0.0088,275,0.0117,0;0.5;0,1,680.7390,1.0,637.0,-399.0,1,1
383,681.4929,-14601.6807,-13920.1878,14602.1809,681.9931,0.3001,682.2932,0.3668,-275,0.05,275,0.1171,0;0.5;0,1,681.9063,1.0,576.0,-388.0,1,1
384,682.6600,-14602.8478,-13920.1878,14603.3147,683.1269,0.3001,683.4270,0.3668,-275,0.0167,275,0.0838,0;0.5;0,1,683.0400,1.0,555.0,-420.0,1,1
385,683.7938,-14603.9816,-13920.1878,14604.4151,684.2273,0.3001,684.5274,0.3668,-275,0.0088,275,0.2009,0;0.5;0,1,684.1403,1.0,535.0,-439.0,1,1
386,684.8943,-14605.0820,-13920.1878,14605.6323,685.4445,0.3001,685.7446,0.3668,-275,0.0167,275,0.2088,0;0.5;0,1,685.3493,1.0,493.0,-551.0,1,1
387,686.1114,-14606.2992,-13920.1878,14607.1662,686.9784,0.3001,687.2786,0.3668,275,0.0167,-275,0.0249,0;0.5;0,0,686.8834,0.0,-776.0,-352.0,1,1
388,687.6454,-14607.8332,-13920.1878,14608.4167,688.2289,0.3001,688.5291,0.3668,-275,0.2,275,0.2671,1;0;0,1,688.1337,0.0,-778.0,-345.0,1,0
389,688.8959,-14609.0837,-13920.1878,14609.3671,689.1793,0.3001,689.4794,0.3668,-275,0.0167,275,0.0402,0;0.5;0,1,689.0842,1.0,550.0,-546.0,1,1
390,689.8463,-14610.0340,-13920.1878,14611.4013,691.2135,0.3001,691.5136,0.3668,-275,0.05,275,0.6,0;0.5;0,1,691.1266,1.0,604.0,-407.0,1,1
391,691.8804,-14612.0682,-13920.1878,14613.1520,692.9642,0.3001,693.2643,0.3668,275,0.45,-275,1,0;0.5;0,0,692.8773,0.0,-595.0,-580.0,1,1
392,693.6311,-14613.8189,-13920.1878,14614.3858,694.1980,0.3001,694.4981,0.3668,-275,0.45,275,0.4735,0;0.5;0,1,694.1112,1.0,691.0,-422.0,1,1
393,694.8650,-14615.0527,-13920.1878,14615.6030,695.4152,0.3001,695.7153,0.3668,-275,0.0088,275,0.0759,1;0;0,1,695.3198,0.0,-976.0,-254.0,1,0
394,696.0821,-14616.2699,-13920.1878,14617.2203,697.0325,0.3001,697.3326,0.3668,275,0.0167,-275,0.0402,1;0;0,0,696.9456,1.0,618.0,-591.0,1,0
395,697.6994,-14617.8872,-13920.1878,14617.9873,697.7995,0.3001,698.0996,0.3668,275,0.05,-275,0.0735,0;0.5;0,0,697.7127,0.0,-912.0,-86.0,1,1
396,698.4664,-14618.6542,-13920.1878,14620.5716,700.3839,0.3001,700.6840,0.3668,275,0.0167,-275,0.2088,0;0.5;0,0,700.2885,0.0,-932.0,-95.0,1,1
397,701.0508,-14621.2386,-13920.1878,14621.4887,701.3009,0.3001,701.6010,0.3668,275,0.2,-275,1,1;0;0,0,701.2140,1.0,766.0,-419.0,1,0
398,701.9678,-14622.1556,-13920.1878,14622.5724,702.3847,0.3001,702.6848,0.3668,275,0.0167,-275,0.0838,0;0.5;0,0,702.2896,0.0,-933.0,-186.0,1,1
399,703.0516,-14623.2394,-13920.1878,14624.1731,703.9853,0.3001,704.2854,0.3668,-275,0.0167,275,0.0177,1;0;0,1,703.8900,0.0,-922.0,-148.0,1,0
400,704.6522,-14624.8400,-13920.1878,14625.5570,705.3692,0.3001,705.6693,0.3668,275,0.0088,-275,0.0117,1;0;0,0,705.2823,1.0,569.0,-581.0,1,0
401,706.0361,-14626.2239,-13920.1878,14626.6407,706.4530,0.3001,706.7531,0.3668,275,0.05,-275,0.6,0;0.5;0,0,706.3662,0.0,-923.0,-138.0,1,1
402,707.1199,-14627.3077,-13920.1878,14627.8913,707.7035,0.3001,708.0036,0.3668,275,0.2,-275,0.2235,1;0;0,0,707.6165,1.0,561.0,-579.0,1,0
403,708.3704,-14628.5582,-13920.1878,14628.9584,708.7706,0.3001,709.0707,0.3668,275,0.05,-275,0.0529,0;0.5;0,0,708.6753,0.0,-917.0,-118.0,1,1
404,709.4375,-14629.6253,-13920.1878,14630.7424,710.5546,0.3001,710.8547,0.3668,275,0.2,-275,0.2671,0;0.5;0,0,710.4678,0.0,-923.0,-126.0,1,1
405,711.2216,-14631.4093,-13920.1878,14632.3431,712.1553,0.3001,712.4554,0.3668,-275,0,275,0.0029,1;0;0,1,712.0684,0.0,-927.0,-163.0,1,0
406,712.8222,-14633.0100,-13920.1878,14633.8770,713.6892,0.3001,713.9893,0.3668,-275,0.0088,275,0.0323,0;0.5;0,1,713.5940,1.0,585.0,-551.0,1,1
407,714.3562,-14634.5439,-13920.1878,14635.0275,714.8397,0.3001,715.1398,0.3668,275,0.45,-275,1,0;0.5;0,0,714.7444,0.0,-928.0,-169.0,1,1
408,715.5066,-14635.6944,-13920.1878,14637.0783,716.8905,0.3001,717.1906,0.3668,275,0.0167,-275,0.0177,0;0.5;0,0,716.8037,0.0,-850.0,-445.0,1,1
409,717.5575,-14637.7452,-13920.1878,14638.2121,718.0243,0.3001,718.3244,0.3668,-275,0.45,275,0.4735,0;0.5;0,1,717.9376,1.0,728.0,-422.0,1,1
410,718.6912,-14638.8790,-13920.1878,14641.9469,721.7592,0.3001,722.0593,0.3668,-275,0.0088,275,0.017,0;0.5;0,1,721.6723,1.0,769.0,-397.0,1,1
411,722.4261,-14642.6139,-13920.1878,14643.6643,723.4765,0.3001,723.7766,0.3668,-275,0.45,275,0.4735,0;0.5;0,1,723.3815,1.0,742.0,-486.0,1,1
412,724.1434,-14644.3312,-13920.1878,14644.5980,724.4102,0.3001,724.7103,0.3668,275,0.0088,-275,0.0759,0;0.5;0,0,724.3150,0.0,-848.0,-407.0,1,1
413,725.0772,-14645.2649,-13920.1878,14645.6318,725.4440,0.3001,725.7441,0.3668,275,0.0088,-275,0.2009,0;0.5;0,0,725.3487,0.0,-857.0,-398.0,1,1
414,726.1109,-14646.2987,-13920.1878,14646.8322,726.6445,0.3001,726.9446,0.3668,-275,0.0167,275,0.0177,1;0;0,1,726.5493,0.0,-893.0,-393.0,1,0
415,727.3114,-14647.4992,-13920.1878,14647.8326,727.6449,0.3001,727.9450,0.3668,-275,0.2,275,0.2671,0;0.5;0,1,727.5496,1.0,757.0,-480.0,1,1
416,728.3118,-14648.4996,-13920.1878,14648.9164,728.7286,0.3001,729.0288,0.3668,-275,0.0088,275,0.0759,0;0.5;0,1,728.6418,1.0,760.0,-475.0,1,1
417,729.3956,-14649.5833,-13920.1878,14649.9335,729.7457,0.3001,730.0458,0.3668,275,0.45,-275,0.4735,0;0.5;0,0,729.6505,0.0,-878.0,-374.0,1,1
418,730.4126,-14650.6004,-13920.1878,14651.3007,731.1129,0.3001,731.4131,0.3668,275,0.0088,-275,0.017,0;0.5;0,0,731.0259,0.0,-873.0,-366.0,1,1
419,731.7799,-14651.9676,-13920.1878,14652.3511,732.1634,0.3001,732.4635,0.3668,275,0.2,-275,0.2671,1;0;0,0,732.0764,1.0,777.0,-494.0,1,0
420,732.8303,-14653.0181,-13920.1878,14653.5516,733.3638,0.3001,733.6640,0.3668,275,0.45,-275,0.4582,0;0.5;0,0,733.2691,0.0,-889.0,-356.0,1,1
421,734.0308,-14654.2186,-13920.1878,14654.7188,734.5310,0.3001,734.8311,0.3668,-275,0.0167,275,0.0838,0;0.5;0,1,734.4442,1.0,805.0,-493.0,1,1
422,735.1979,-14655.3857,-13920.1878,14655.8359,735.6481,0.3001,735.9482,0.3668,275,0.05,-275,0.2421,0;0.5;0,0,735.5611,0.0,-894.0,-335.0,1,1
423,736.3150,-14656.5028,-13920.1878,14656.9363,736.7485,0.3001,737.0487,0.3668,-275,0,275,0.1921,0;0.5;0,1,736.6618,1.0,813.0,-527.0,1,1
424,737.4155,-14657.6033,-13920.1878,14658.0868,737.8990,0.3001,738.1991,0.3668,275,0.2,-275,0.75,0;0.5;0,0,737.8037,0.0,-874.0,-368.0,1,1
425,738.5659,-14658.7537,-13920.1878,14659.2039,739.0161,0.3001,739.3162,0.3668,-275,0.2,275,0.2671,0;0.5;0,1,738.9209,1.0,845.0,-508.0,1,1
426,739.6831,-14659.8708,-13920.1878,14660.2543,740.0665,0.3001,740.3667,0.3668,275,0.0167,-275,0.0402,0;0.5;0,0,739.9796,0.0,-889.0,-336.0,1,1
427,740.7335,-14660.9213,-13920.1878,14662.5886,742.4008,0.3001,742.7009,0.3668,-275,0,275,0.0082,1;0;0,1,742.3141,0.0,-895.0,-350.0,1,0
428,743.0678,-14663.2555,-13920.1878,14663.7391,743.5513,0.3001,743.8514,0.3668,275,0.0088,-275,0.017,0;0.5;0,0,743.4645,0.0,-877.0,-359.0,1,1
429,744.2182,-14664.4060,-13920.1878,14665.5565,745.3687,0.3001,745.6688,0.3668,-275,0,275,0.0082,1;0;0,1,745.2735,0.0,-856.0,-393.0,1,0
430,746.0356,-14666.2234,-13920.1878,14666.6736,746.4858,0.3001,746.7859,0.3668,-275,0.05,275,0.0582,1;0;0,1,746.3905,0.0,-855.0,-411.0,1,0
431,747.1527,-14667.3405,-13920.1878,14667.7740,747.5863,0.3001,747.8864,0.3668,-275,0.2,275,0.3921,0;0.5;0,1,747.4993,1.0,877.0,-477.0,1,1
432,748.2532,-14668.4410,-13920.1878,14668.8911,748.7034,0.3001,749.0035,0.3668,275,0.05,-275,0.2421,0;0.5;0,0,748.6081,0.0,-860.0,-406.0,1,1
433,749.3703,-14669.5581,-13920.1878,14670.1917,750.0039,0.3001,750.3040,0.3668,275,0.0167,-275,0.0196,0;0.5;0,0,749.9088,0.0,-858.0,-399.0,1,1
434,750.6708,-14670.8586,-13920.1878,14671.3088,751.1210,0.3001,751.4211,0.3668,275,0.05,-275,0.1171,0;0.5;0,0,751.0342,0.0,-867.0,-402.0,1,1
435,751.7879,-14671.9757,-13920.1878,14672.8261,752.6383,0.3001,752.9384,0.3668,275,0.0167,-275,0.0402,0;0.5;0,0,752.5514,0.0,-856.0,-411.0,1,1
436,753.3052,-14673.4930,-13920.1878,14674.6435,754.4557,0.3001,754.7558,0.3668,-275,0,275,0.0082,1;0;0,1,754.3605,0.0,-858.0,-392.0,1,0
437,755.1226,-14675.3104,-13920.1878,14675.7272,755.5395,0.3001,755.8396,0.3668,275,0.2,-275,0.2082,1;0;0,0,755.4526,1.0,886.0,-461.0,1,0
438,756.2064,-14676.3942,-13920.1878,14676.7276,756.5399,0.3001,756.8400,0.3668,275,0.45,-275,0.5171,1;0;0,0,756.4447,1.0,884.0,-472.0,1,0
439,757.2068,-14677.3946,-13920.1878,14677.8614,757.6737,0.3001,757.9738,0.3668,275,0.45,-275,0.4582,1;0;0,0,757.5869,1.0,879.0,-479.0,1,0
440,758.3406,-14678.5284,-13920.1878,14678.8618,758.6741,0.3001,758.9742,0.3668,275,0,-275,0.1921,0;0.5;0,0,758.5872,0.0,-870.0,-385.0,1,1
441,759.3410,-14679.5288,-13920.1878,14680.2791,760.0913,0.3001,760.3914,0.3668,-275,0,275,0.0029,0;0.5;0,1,760.0045,1.0,869.0,-495.0,1,1
442,760.7582,-14680.9460,-13920.1878,14681.2962,761.1084,0.3001,761.4085,0.3668,-275,0.45,275,1,1;0;0,1,761.0215,0.0,-884.0,-392.0,1,0
443,761.7753,-14681.9631,-13920.1878,14682.8301,762.6423,0.3001,762.9425,0.3668,275,0,-275,0.0029,0;0.5;0,0,762.5556,0.0,-882.0,-401.0,1,1
444,763.3093,-14683.4970,-13920.1878,14683.9306,763.7428,0.3001,764.0429,0.3668,275,0.0167,-275,0.2088,0;0.5;0,0,763.6558,0.0,-903.0,-341.0,1,1
445,764.4097,-14684.5975,-13920.1878,14685.0143,764.8265,0.3001,765.1267,0.3668,275,0.05,-275,0.1171,0;0.5;0,0,764.7314,0.0,-860.0,-433.0,1,1
446,765.4935,-14685.6813,-13920.1878,14686.1148,765.9270,0.3001,766.2271,0.3668,275,0.45,-275,0.6421,0;0.5;0,0,765.8400,0.0,-899.0,-391.0,1,1
447,766.5939,-14686.7817,-13920.1878,14687.4486,767.2609,0.3001,767.5610,0.3668,-275,0.0088,275,0.0323,0;0.5;0,1,767.1740,1.0,874.0,-483.0,1,1
448,767.9278,-14688.1156,-13920.1878,14688.5824,768.3947,0.3001,768.6948,0.3668,275,0.05,-275,0.0735,0;0.5;0,0,768.3078,0.0,-901.0,-395.0,1,1
449,769.0616,-14689.2494,-13920.1878,14690.0830,769.8953,0.3001,770.1954,0.3668,-275,0.05,275,0.1171,0;0.5;0,1,769.8084,1.0,908.0,-489.0,1,1
450,770.5622,-14690.7500,-13920.1878,14691.2668,771.0791,0.3001,771.3792,0.3668,-275,0.0088,275,0.2009,0;0.5;0,1,770.9838,1.0,893.0,-97.0,1,1
451,771.7460,-14691.9338,-13920.1878,14692.3673,772.1795,0.3001,772.4796,0.3668,-275,0.2,275,0.2235,1;0;0,1,772.0927,0.0,-887.0,-396.0,1,0
452,772.8465,-14693.0342,-13920.1878,14693.6011,773.4133,0.3001,773.7135,0.3668,275,0.45,-275,0.4582,1;0;0,0,773.3181,1.0,735.0,-202.0,1,0
453,774.0803,-14694.2681,-13920.1878,14694.7516,774.5638,0.3001,774.8639,0.3668,-275,0.0088,275,0.0117,1;0;0,1,774.4688,0.0,-886.0,-357.0,1,0
454,775.2307,-14695.4185,-13920.1878,14695.6853,775.4975,0.3001,775.7976,0.3668,275,0.05,-275,0.0529,0;0.5;0,0,775.4106,0.0,-878.0,-354.0,1,1
455,776.1645,-14696.3522,-13920.1878,14696.5690,776.3812,0.3001,776.6813,0.0000,275,0,-275,0.1921,0;0.5;0,0,776.2861,0.0,-874.0,-378.0,1,1
456,776.6813,-14696.8691,-13920.1878,14697.2859,777.0982,0.3001,777.3983,0.3668,275,0.2,-275,0.2082,1;0;0,0,777.0028,1.0,706.0,-363.0,1,0
457,777.7651,-14697.9529,-13920.1878,14698.0529,777.8651,0.3001,778.1653,0.3668,-275,0,275,0.0029,1;0;0,1,777.7784,0.0,-896.0,-345.0,1,0
458,778.5321,-14698.7199,-13920.1878,14698.8366,778.6488,0.3001,778.9489,0.3668,-275,0.05,275,0.6,1;0;0,1,778.5537,0.0,-894.0,-344.0,1,0
459,779.3157,-14699.5035,-13920.1878,14699.7203,779.5325,0.3001,779.8326,0.3668,-275,0.05,275,0.0529,0;0.5;0,1,779.4456,1.0,677.0,-390.0,1,1
460,780.1994,-14700.3872,-13920.1878,14700.7540,780.5662,0.3001,780.8664,0.3668,275,0.0088,-275,0.0098,1;0;0,0,780.4795,1.0,646.0,-359.0,1,0
461,781.2332,-14701.4209,-13920.1878,14701.8878,781.7000,0.3001,782.0001,0.3668,-275,0,275,0.0671,0;0.5;0,1,781.6132,1.0,578.0,-392.0,1,1
462,782.3670,-14702.5547,-13920.1878,14702.8549,782.6671,0.3001,782.9672,0.3668,-275,0.2,275,0.3921,0;0.5;0,1,782.5801,1.0,525.0,-410.0,1,1
463,783.3340,-14703.5218,-13920.1878,14704.5222,784.3344,0.3001,784.6345,0.3668,275,0.0167,-275,0.0177,0;0.5;0,0,784.2394,0.0,-894.0,-358.0,1,1
464,785.0014,-14705.1891,-13920.1878,14707.3567,787.1689,0.3001,787.4690,0.3668,-275,0.0167,275,0.0249,0;0.5;0,1,787.0820,1.0,770.0,-376.0,1,1
465,787.8358,-14708.0236,-13920.1878,14708.6405,788.4528,0.3001,788.7529,0.3668,-275,0.2,275,0.2235,0;0.5;0,1,788.3575,1.0,728.0,-362.0,1,1
466,789.1197,-14709.3075,-13920.1878,14709.8410,789.6532,0.3001,789.9534,0.3668,-275,0,275,0.0082,1;0;0,1,789.5664,0.0,-834.0,-340.0,1,0
467,790.3202,-14710.5080,-13920.1878,14710.9081,790.7203,0.3001,791.0205,0.3668,-275,0.45,275,0.6421,0;0.5;0,1,790.6253,1.0,720.0,-361.0,1,1
468,791.3873,-14711.5750,-13920.1878,14711.9919,791.8041,0.3001,792.1042,0.3668,275,0.0088,-275,0.2009,0;0.5;0,0,791.7089,0.0,-815.0,-368.0,1,1
469,792.4710,-14712.6588,-13920.1878,14712.9923,792.8045,0.3001,793.1046,0.3668,-275,0.45,275,0.4735,0;0.5;0,1,792.7094,1.0,756.0,-328.0,1,1
470,793.4714,-14713.6592,-13920.1878,14714.2261,794.0383,0.3001,794.3385,0.3668,275,0.2,-275,0.2235,0;0.5;0,0,793.9514,0.0,-847.0,-338.0,1,1
471,794.7053,-14714.8931,-13920.1878,14715.2765,795.0888,0.3001,795.3889,0.3668,275,0.45,-275,1,0;0.5;0,0,795.0020,0.0,-859.0,-316.0,1,1
472,795.7557,-14715.9435,-13920.1878,14716.7605,796.5727,0.3001,796.8728,0.3668,-275,0.0167,275,0.0177,0;0.5;0,1,796.4774,1.0,736.0,-354.0,1,1
473,797.2396,-14717.4274,-13920.1878,14717.9443,797.7565,0.3001,798.0566,0.3668,275,0.0088,-275,0.0759,0;0.5;0,0,797.6612,0.0,-850.0,-335.0,1,1
474,798.4234,-14718.6112,-13920.1878,14719.8617,799.6740,0.3001,799.9741,0.3668,-275,0,275,0.0235,0;0.5;0,1,799.5788,1.0,802.0,-379.0,1,1
475,800.3409,-14720.5287,-13920.1878,14720.7954,800.6077,0.3001,800.9078,0.3668,-275,0.0167,275,0.0196,1;0;0,1,800.5209,0.0,-947.0,-203.0,1,0
476,801.2746,-14721.4624,-13920.1878,14721.7291,801.5414,0.3001,801.8415,0.3668,-275,0.05,275,0.0582,1;0;0,1,801.4461,0.0,-951.0,-325.0,1,0
477,802.2083,-14722.3961,-13920.1878,14723.0297,802.8419,0.3001,803.1420,0.3668,-275,0,275,0.1921,0;0.5;0,1,802.7552,1.0,811.0,-430.0,1,1
478,803.5088,-14723.6966,-13920.1878,14723.9967,803.8090,0.3001,804.1091,0.3668,275,0,-275,0.001,0;0.5;0,0,803.7138,0.0,-938.0,-449.0,1,1
479,804.4759,-14724.6637,-13920.1878,14725.0638,804.8761,0.3001,805.1762,0.3668,275,0.0167,-275,0.0838,0;0.5;0,0,804.7808,0.0,-947.0,-436.0,1,1
480,805.5430,-14725.7308,-13920.1878,14726.3810,806.1932,0.3001,806.4934,0.3668,275,0.2,-275,0.2235,1;0;0,0,806.1062,1.0,812.0,-402.0,1,0
481,806.8602,-14727.0480,-13920.1878,14727.1980,807.0102,0.3001,807.3104,0.3668,-275,0,275,0.0082,1;0;0,1,806.9151,0.0,-956.0,-354.0,1,0
482,807.6772,-14727.8650,-13920.1878,14728.0317,807.8439,0.3001,808.1440,0.3668,275,0.05,-275,0.0529,0;0.5;0,0,807.7569,0.0,-957.0,-369.0,1,1
483,808.5109,-14728.6986,-13920.1878,14729.1655,808.9777,0.3001,809.2778,0.3668,-275,0.05,275,0.0529,0;0.5;0,1,808.8825,1.0,825.0,-356.0,1,1
484,809.6446,-14729.8324,-13920.1878,14730.4327,810.2449,0.3001,810.5450,0.3668,275,0.45,-275,0.4735,1;0;0,0,810.1581,1.0,812.0,-373.0,1,0
485,810.9118,-14731.0996,-13920.1878,14731.7999,811.6121,0.3001,811.9122,0.3668,275,0,-275,0.001,1;0;0,0,811.5251,1.0,796.0,-412.0,1,0
486,812.2790,-14732.4668,-13920.1878,14732.8170,812.6292,0.3001,812.9293,0.3668,-275,0.2,275,0.75,1;0;0,1,812.5340,0.0,-950.0,-369.0,1,0
487,813.2961,-14733.4839,-13920.1878,14734.6344,814.4466,0.3001,814.7467,0.3668,275,0,-275,0.0082,0;0.5;0,0,814.3597,0.0,-963.0,-354.0,1,1
488,815.1135,-14735.3013,-13920.1878,14735.5681,815.3803,0.3001,815.6804,0.3668,-275,0.2,275,0.2235,0;0.5;0,1,815.2935,1.0,797.0,-402.0,1,1
489,816.0472,-14736.2350,-13920.1878,14736.7686,816.5808,0.3001,816.8809,0.3668,275,0.0088,-275,0.0098,0;0.5;0,0,816.4855,0.0,-971.0,-369.0,1,1
490,817.2477,-14737.4355,-13920.1878,14738.0357,817.8480,0.3001,818.1481,0.3668,-275,0.0088,275,0.2009,0;0.5;0,1,817.7526,1.0,670.0,-477.0,1,1
491,818.5149,-14738.7027,-13920.1878,14739.0862,818.8984,0.3001,819.1985,0.3668,275,0.2,-275,0.75,0;0.5;0,0,818.8116,0.0,-870.0,-466.0,1,1
492,819.5653,-14739.7531,-13920.1878,14740.1533,819.9655,0.3001,820.2656,0.3668,-275,0.0088,275,0.2009,0;0.5;0,1,819.8702,1.0,753.0,-445.0,1,1
493,820.6324,-14740.8202,-13920.1878,14741.3204,821.1326,0.3001,821.4327,0.3668,275,0.2,-275,0.2235,0;0.5;0,0,821.0374,0.0,-928.0,-486.0,1,1
494,821.7995,-14741.9873,-13920.1878,14742.5709,822.3831,0.3001,822.6832,0.3668,275,0.2,-275,1,0;0.5;0,0,822.2962,0.0,-942.0,-455.0,1,1
495,823.0501,-14743.2378,-13920.1878,14744.0382,823.8504,0.3001,824.1505,0.3668,275,0.2,-275,0.2082,1;0;0,0,823.7550,1.0,637.0,-477.0,1,0
496,824.5173,-14744.7051,-13920.1878,14745.1886,825.0008,0.3001,825.3010,0.3668,-275,0.2,275,0.75,1;0;0,1,824.9057,0.0,-971.0,-339.0,1,0
497,825.6678,-14745.8556,-13920.1878,14750.6408,830.4530,0.3001,830.7532,0.3668,275,0.2,-275,0.2082,1;0;0,0,830.3578,1.0,700.0,-368.0,1,0
498,831.1200,-14751.3078,-13920.1878,14751.8246,831.6369,0.3001,831.9370,0.3668,-275,0.0167,275,0.0249,1;0;0,1,831.5415,0.0,-904.0,-436.0,1,0
499,832.3038,-14752.4916,-13920.1878,14752.8751,832.6873,0.3001,832.9874,0.3668,275,0.05,-275,0.0582,0;0.5;0,0,832.6004,0.0,-866.0,-431.0,1,1
500,833.3542,-14753.5420,-13920.1878,14753.9422,833.7544,0.3001,834.0545,0.3668,275,0,-275,0.0671,0;0.5;0,0,833.6675,0.0,-841.0,-404.0,1,1
501,834.4213,-14754.6091,-13920.1878,14755.0426,834.8548,0.3001,835.1549,0.3668,-275,0.05,275,0.1171,0;0.5;0,1,834.7596,1.0,580.0,-450.0,1,1
502,835.5218,-14755.7095,-13920.1878,14756.1764,835.9886,0.3001,836.2887,0.3668,-275,0.45,275,1,0;0.5;0,1,835.8932,1.0,524.0,-455.0,1,1
503,836.6555,-14756.8433,-13920.1878,14758.5774,838.3896,0.3001,838.6897,0.3668,-275,0,275,0.001,0;0.5;0,1,838.2944,1.0,554.0,-453.0,1,1
504,839.0565,-14759.2443,-13920.1878,14759.7778,839.5901,0.3001,839.8902,0.3668,-275,0.2,275,0.2082,1;0;0,1,839.5032,0.0,-840.0,-426.0,1,0
505,840.2570,-14760.4448,-13920.1878,14761.6453,841.4575,0.3001,841.7576,0.3668,-275,0,275,0.001,0;0.5;0,1,841.3621,1.0,614.0,-460.0,1,1
506,842.1244,-14762.3122,-13920.1878,14762.8291,842.6413,0.3001,842.9414,0.3668,-275,0.05,275,0.2421,0;0.5;0,1,842.5460,1.0,624.0,-478.0,1,1
507,843.3082,-14763.4960,-13920.1878,14764.8132,844.6254,0.3001,844.9255,0.3668,-275,0.0167,275,0.0838,0;0.5;0,1,844.5387,1.0,538.0,-570.0,1,1
508,845.2924,-14765.4801,-13920.1878,14766.3472,846.1594,0.3001,846.4595,0.3668,275,0.0088,-275,0.0759,0;0.5;0,0,846.0725,0.0,-840.0,-437.0,1,1
509,846.8263,-14767.0141,-13920.1878,14769.1316,848.9438,0.3001,849.2440,0.3668,-275,0,275,0.0029,1;0;0,1,848.8486,0.0,-852.0,-437.0,1,0
510,849.6108,-14769.7986,-13920.1878,14770.4155,850.2277,0.3001,850.5278,0.3668,-275,0.05,275,0.0529,0;0.5;0,1,850.1325,1.0,636.0,-471.0,1,1
511,850.8946,-14771.0824,-13920.1878,14771.8327,851.6449,0.3001,851.9450,0.3668,275,0.0167,-275,0.0196,0;0.5;0,0,851.5497,0.0,-850.0,-454.0,1,1
512,852.3119,-14772.4996,-13920.1878,14775.0673,854.8796,0.3001,855.1797,0.3668,275,0.0088,-275,0.0323,0;0.5;0,0,854.7927,0.0,-875.0,-527.0,1,1
513,855.5465,-14775.7343,-13920.1878,14776.5846,856.3968,0.3001,856.6970,0.3668,-275,0.05,275,0.0735,0;0.5;0,1,856.3100,1.0,851.0,-447.0,1,1
514,857.0638,-14777.2516,-13920.1878,14777.8851,857.6974,0.3001,857.9975,0.3668,-275,0.0167,275,0.0177,0;0.5;0,1,857.6020,1.0,831.0,-465.0,1,1
515,858.3643,-14778.5521,-13920.1878,14779.7526,859.5648,0.3001,859.8649,0.3668,-275,0,275,0.0235,1;0;0,1,859.4695,0.0,-858.0,-376.0,1,0
516,860.2317,-14780.4195,-13920.1878,14780.9364,860.7486,0.3001,861.0487,0.3668,275,0.45,-275,1,0;0.5;0,0,860.6535,0.0,-865.0,-397.0,1,1
517,861.4155,-14781.6033,-13920.1878,14783.5208,863.3330,0.3001,863.6331,0.3668,-275,0.0167,275,0.0196,0;0.5;0,1,863.2378,1.0,862.0,-494.0,1,1
518,863.9999,-14784.1877,-13920.1878,14784.7546,864.5668,0.3001,864.8669,0.3668,275,0.05,-275,0.1171,0;0.5;0,0,864.4800,0.0,-865.0,-387.0,1,1
519,865.2337,-14785.4215,-13920.1878,14787.0889,866.9011,0.3001,867.2012,0.3668,-275,0,275,0.0082,0;0.5;0,1,866.8058,1.0,825.0,-473.0,1,1
520,867.5680,-14787.7558,-13920.1878,14788.1560,867.9682,0.3001,868.2683,0.3668,275,0.2,-275,0.3921,0;0.5;0,0,867.8813,0.0,-869.0,-420.0,1,1
521,868.6351,-14788.8229,-13920.1878,14789.2231,869.0353,0.3001,869.3354,0.3668,275,0.0167,-275,0.2088,0;0.5;0,0,868.9486,0.0,-875.0,-447.0,1,1
522,869.7022,-14789.8900,-13920.1878,14790.5069,870.3191,0.3001,870.6193,0.3668,275,0.2,-275,0.2671,0;0.5;0,0,870.2322,0.0,-865.0,-420.0,1,1
523,870.9861,-14791.1738,-13920.1878,14791.6240,871.4362,0.3001,871.7364,0.3668,275,0.45,-275,0.6421,0;0.5;0,0,871.3409,0.0,-858.0,-411.0,1,1
524,872.1032,-14792.2910,-13920.1878,14793.0246,872.8368,0.3001,873.1369,0.3668,275,0.2,-275,0.2082,1;0;0,0,872.7501,1.0,817.0,-450.0,1,0
525,873.5037,-14793.6915,-13920.1878,14794.2084,874.0206,0.3001,874.3207,0.3668,-275,0.0167,275,0.0838,0;0.5;0,1,873.9255,1.0,816.0,-458.0,1,1
526,874.6876,-14794.8753,-13920.1878,14795.3255,875.1377,0.3001,875.4379,0.3668,-275,0.2,275,0.75,0;0.5;0,1,875.0508,1.0,807.0,-464.0,1,1
527,875.8047,-14795.9925,-13920.1878,14796.9095,876.7217,0.3001,877.0218,0.3668,-275,0.0088,275,0.0117,1;0;0,1,876.6347,0.0,-856.0,-415.0,1,0
528,877.3886,-14797.5764,-13920.1878,14799.8440,879.6562,0.3001,879.9564,0.3668,-275,0,275,0.001,0;0.5;0,1,879.5609,1.0,834.0,-448.0,1,1
529,880.3232,-14800.5109,-13920.1878,14801.3279,881.1402,0.3001,881.4403,0.3668,275,0.05,-275,0.0529,1;0;0,0,881.0533,1.0,821.0,-454.0,1,0
530,881.8071,-14801.9949,-13920.1878,14802.4617,882.2740,0.3001,882.5741,0.3668,-275,0.45,275,0.6421,0;0.5;0,1,882.1786,1.0,825.0,-440.0,1,1
531,882.9409,-14803.1287,-13920.1878,14803.6122,883.4244,0.3001,883.7245,0.3668,275,0.2,-275,0.3921,0;0.5;0,0,883.3292,0.0,-876.0,-404.0,1,1
532,884.0914,-14804.2791,-13920.1878,14804.9961,884.8083,0.3001,885.1084,0.3668,275,0.0088,-275,0.017,0;0.5;0,0,884.7213,0.0,-860.0,-466.0,1,1
533,885.4752,-14805.6630,-13920.1878,14806.5967,886.4090,0.3001,886.7091,0.3668,-275,0,275,0.0029,1;0;0,1,886.3136,0.0,-830.0,-416.0,1,0
534,887.0759,-14807.2637,-13920.1878,14807.8639,887.6761,0.3001,887.9763,0.3668,-275,0.0167,275,0.2088,0;0.5;0,1,887.5808,1.0,645.0,-335.0,1,1
535,888.3431,-14808.5308,-13920.1878,14809.1811,888.9933,0.3001,889.2935,0.3668,275,0.0167,-275,0.2088,0;0.5;0,0,888.9064,0.0,-840.0,-411.0,1,1
536,889.6603,-14809.8480,-13920.1878,14811.6654,891.4777,0.3001,891.7778,0.3668,275,0.0088,-275,0.0759,0;0.5;0,0,891.3826,0.0,-836.0,-433.0,1,1
537,892.1446,-14812.3324,-13920.1878,14813.0660,892.8782,0.3001,893.1784,0.3668,-275,0.05,275,0.0582,1;0;0,1,892.7831,0.0,-862.0,-372.0,1,0
538,893.5452,-14813.7329,-13920.1878,14814.2832,894.0954,0.3001,894.3955,0.3668,-275,0.0167,275,0.0249,0;0.5;0,1,894.0085,1.0,827.0,-380.0,1,1
539,894.7623,-14814.9501,-13920.1878,14815.3669,895.1792,0.3001,895.4793,0.3668,275,0,-275,0.1921,0;0.5;0,0,895.0839,0.0,-838.0,-440.0,1,1
540,895.8461,-14816.0339,-13920.1878,14816.4174,896.2296,0.3001,896.5297,0.3668,-275,0,275,0.1921,0;0.5;0,1,896.1343,1.0,835.0,-362.0,1,1
541,896.8965,-14817.0843,-13920.1878,14818.3848,898.1970,0.3001,898.4972,0.3668,-275,0,275,0.001,1;0;0,1,898.1101,0.0,-871.0,-354.0,1,0
542,898.8640,-14819.0518,-13920.1878,14819.5520,899.3642,0.3001,899.6643,0.3668,275,0.2,-275,0.2235,0;0.5;0,0,899.2773,0.0,-859.0,-405.0,1,1
543,900.0311,-14820.2189,-13920.1878,14820.5690,900.3813,0.3001,900.6814,0.3668,275,0.0088,-275,0.2009,0;0.5;0,0,900.2945,0.0,-863.0,-398.0,1,1
544,901.0482,-14821.2360,-13920.1878,14821.8029,901.6151,0.3001,901.9152,0.3668,275,0.0088,-275,0.0323,0;0.5;0,0,901.5199,0.0,-875.0,-397.0,1,1
545,902.2820,-14822.4698,-13920.1878,14822.8533,902.6655,0.3001,902.9656,0.3668,-275,0.45,275,1,0;0.5;0,1,902.5787,1.0,832.0,-404.0,1,1
546,903.3325,-14823.5202,-13920.1878,14823.9204,903.7326,0.3001,904.0327,0.3668,-275,0.2,275,0.75,0;0.5;0,1,903.6375,1.0,817.0,-421.0,1,1
547,904.3995,-14824.5873,-13920.1878,14825.1375,904.9498,0.3001,905.2499,0.3668,-275,0,275,0.0235,0;0.5;0,1,904.8628,1.0,811.0,-433.0,1,1
548,905.6167,-14825.8045,-13920.1878,14826.1213,905.9335,0.3001,906.2336,0.3668,275,0,-275,0.1921,0;0.5;0,0,905.8381,0.0,-868.0,-401.0,1,1
549,906.6004,-14826.7882,-13920.1878,14827.3885,907.2007,0.3001,907.5008,0.3668,275,0.45,-275,0.4735,0;0.5;0,0,907.1055,0.0,-883.0,-429.0,1,1
550,907.8676,-14828.0554,-13920.1878,14828.4389,908.2511,0.3001,908.5512,0.3668,275,0.2,-275,0.2235,0;0.5;0,0,908.1559,0.0,-876.0,-436.0,1,1
551,908.9180,-14829.1058,-13920.1878,14829.5893,909.4016,0.3001,909.7017,0.3668,275,0.2,-275,0.2671,0;0.5;0,0,909.3063,0.0,-882.0,-416.0,1,1
552,910.0685,-14830.2563,-13920.1878,14830.6898,910.5020,0.3001,910.8021,0.3668,275,0.05,-275,0.0529,0;0.5;0,0,910.4151,0.0,-885.0,-383.0,1,1
553,911.1689,-14831.3567,-13920.1878,14831.9903,911.8025,0.3001,912.1027,0.3668,-275,0.05,275,0.0529,1;0;0,1,911.7156,0.0,-866.0,-437.0,1,0
554,912.4695,-14832.6572,-13920.1878,14833.0574,912.8696,0.3001,913.1698,0.3668,-275,0,275,0.1921,0;0.5;0,1,912.7826,1.0,816.0,-418.0,1,1
555,913.5366,-14833.7243,-13920.1878,14834.1078,913.9201,0.3001,914.2202,0.3668,275,0.45,-275,0.4735,0;0.5;0,0,913.8332,0.0,-882.0,-386.0,1,1
556,914.5870,-14834.7748,-13920.1878,14835.5417,915.3540,0.3001,915.6541,0.3668,275,0.0167,-275,0.0402,1;0;0,0,915.2670,1.0,828.0,-390.0,1,0
557,916.0209,-14836.2087,-13920.1878,14836.8089,916.6211,0.3001,916.9213,0.3668,275,0,-275,0.0029,0;0.5;0,0,916.5342,0.0,-876.0,-389.0,1,1
558,917.2881,-14837.4759,-13920.1878,14838.0428,917.8550,0.3001,918.1551,0.3668,275,0,-275,0.0082,0;0.5;0,0,917.7680,0.0,-889.0,-365.0,1,1
559,918.5219,-14838.7097,-13920.1878,14839.1265,918.9387,0.3001,919.2389,0.3668,-275,0.05,275,0.6,0;0.5;0,1,918.8436,1.0,836.0,-389.0,1,1
560,919.6057,-14839.7935,-13920.1878,14840.1436,919.9558,0.3001,920.2559,0.3668,275,0.0167,-275,0.2088,0;0.5;0,0,919.8688,0.0,-886.0,-370.0,1,1