trial,presentation_startTime,presentation_duration,prefeedback_startTime,prefeedback_duration,feedback_startTime,feedback_duration,fixation_startTime,fixation_duration,presentation_object1_positionX,presentation_object1_contrastValue,presentation_object2_positionX,presentation_object2_contrastValue,feedback_object1_color,trialValue,presentation_responseTime,presentation_response,presentation_touchPositionX,presentation_touchPositionY,respondedInTime,correct
1,50.9291,-53853.9219,-53802.9928,53854.7889,51.7961,0.3001,52.0962,0.3668,275,0.0167,-275,0.0402,0;0.5;0,0,51.7050,0.0,-978.0,-526.0,1,1
2,52.4630,-53855.4558,-53802.9928,53856.2728,53.2800,0.3001,53.5801,0.3668,275,0.0167,-275,0.0249,0;0.5;0,0,53.1806,0.0,-982.0,-476.0,1,1
3,53.9470,-53856.9397,-53802.9928,53857.9235,54.9307,0.3001,55.2308,0.3668,275,0.0167,-275,0.0249,0;0.5;0,0,54.8313,0.0,-999.0,-550.0,1,1
4,55.5976,-53858.5904,-53802.9928,53859.2574,56.2646,0.3001,56.5647,0.3668,-275,0,275,0.0671,0;0.5;0,1,56.1734,1.0,999.0,-522.0,1,1
5,56.9315,-53859.9243,-53802.9928,53860.9080,57.9152,0.3001,58.2154,0.3668,-275,0.0167,275,0.0196,1;0;0,1,57.8242,0.0,-1041.0,-497.0,1,0
6,58.5822,-53861.5750,-53802.9928,53862.8922,59.8994,0.3001,60.1995,0.3668,275,0.2,-275,0.2082,1;0;0,0,59.8083,1.0,996.0,-565.0,1,0
7,60.5663,-53863.5591,-53802.9928,53864.1760,61.1832,0.3001,61.4834,0.3668,275,0.45,-275,0.5171,0;0.5;0,0,61.0922,0.0,-1025.0,-490.0,1,1
8,61.8502,-53864.8430,-53802.9928,53865.7433,62.7505,0.3001,63.0507,0.3668,-275,0.45,275,0.6421,0;0.5;0,1,62.6511,1.0,983.0,-613.0,1,1
9,63.4175,-53866.4103,-53802.9928,53866.8938,63.9010,0.3001,64.2011,0.3668,-275,0.2,275,0.3921,0;0.5;0,1,63.8099,1.0,988.0,-615.0,1,1
10,64.5679,-53867.5607,-53802.9928,53868.1110,65.1182,0.3001,65.4183,0.3668,275,0.2,-275,0.3921,0;0.5;0,0,65.0187,0.0,-1022.0,-495.0,1,1
11,65.7851,-53868.7779,-53802.9928,53869.2781,66.2853,0.3001,66.5854,0.3668,-275,0.05,275,0.0735,0;0.5;0,1,66.1943,1.0,994.0,-573.0,1,1
12,66.9523,-53869.9450,-53802.9928,53871.4123,68.4195,0.3001,68.7196,0.3668,-275,0,275,0.0671,0;0.5;0,1,68.3285,1.0,984.0,-568.0,1,1
13,69.0865,-53872.0792,-53802.9928,53872.9129,69.9201,0.3001,70.2203,0.3668,275,0.0088,-275,0.0117,0;0.5;0,0,69.8290,0.0,-1036.0,-524.0,1,1
14,70.5871,-53873.5799,-53802.9928,53874.2801,71.2874,0.3001,71.5875,0.3668,275,0.45,-275,0.5171,0;0.5;0,0,71.1964,0.0,-1019.0,-503.0,1,1
15,71.9543,-53874.9471,-53802.9928,53875.6640,72.6712,0.3001,72.9714,0.3668,-275,0.0167,275,0.0838,0;0.5;0,1,72.5802,1.0,1005.0,-535.0,1,1
16,73.3382,-53876.3310,-53802.9928,53877.6315,74.6387,0.3001,74.9388,0.3668,275,0.0088,-275,0.0098,0;0.5;0,0,74.5477,0.0,-1075.0,-505.0,1,1
17,75.3057,-53878.2984,-53802.9928,53878.9487,75.9559,0.3001,76.2560,0.3668,275,0,-275,0.0082,0;0.5;0,0,75.8565,0.0,-1028.0,-515.0,1,1
18,76.6229,-53879.6156,-53802.9928,53881.3330,78.3402,0.3001,78.6403,0.3668,-275,0,275,0.0235,1;0;0,1,78.2492,0.0,-1048.0,-453.0,1,0
19,79.0072,-53881.9999,-53802.9928,53882.6335,79.6408,0.3001,79.9409,0.3668,275,0.2,-275,0.2671,0;0.5;0,0,79.5497,0.0,-1038.0,-472.0,1,1
20,80.3077,-53883.3005,-53802.9928,53883.7673,80.7745,0.3001,81.0747,0.3668,-275,0.05,275,0.6,0;0.5;0,1,80.6834,1.0,994.0,-589.0,1,1
21,81.4415,-53884.4343,-53802.9928,53885.3180,82.3252,0.3001,82.6253,0.3668,-275,0.2,275,0.2082,1;0;0,1,82.2258,0.0,-1054.0,-475.0,1,0
22,82.9921,-53885.9849,-53802.9928,53886.5518,83.5590,0.3001,83.8591,0.3668,-275,0.05,275,0.2421,0;0.5;0,1,83.4595,1.0,1002.0,-626.0,1,1
23,84.2260,-53887.2187,-53802.9928,53888.0357,85.0430,0.3001,85.3431,0.3668,-275,0.0167,275,0.0402,1;0;0,1,84.9435,0.0,-1091.0,-440.0,1,0
24,85.7099,-53888.7027,-53802.9928,53890.0532,87.0604,0.3001,87.3606,0.3668,-275,0.05,275,0.0529,1;0;0,1,86.9694,0.0,-1033.0,-508.0,1,0
25,87.7274,-53890.7202,-53802.9928,53891.2037,88.2109,0.3001,88.5110,0.3668,-275,0.45,275,0.6421,0;0.5;0,1,88.1116,1.0,1001.0,-594.0,1,1
26,88.8778,-53891.8706,-53802.9928,53892.7377,89.7449,0.3001,90.0450,0.3668,275,0.05,-275,0.2421,0;0.5;0,0,89.6455,0.0,-1093.0,-390.0,1,1
27,90.4118,-53893.4046,-53802.9928,53893.8548,90.8620,0.3001,91.1621,0.3668,-275,0,275,0.1921,0;0.5;0,1,90.7709,1.0,994.0,-591.0,1,1
28,91.5289,-53894.5217,-53802.9928,53895.3387,92.3459,0.3001,92.6460,0.3668,-275,0.0088,275,0.0759,0;0.5;0,1,92.2465,1.0,998.0,-584.0,1,1
29,93.0129,-53896.0056,-53802.9928,53896.8226,93.8299,0.3001,94.1300,0.3668,275,0,-275,0.0671,0;0.5;0,0,93.7304,0.0,-1038.0,-496.0,1,1
30,94.4968,-53897.4896,-53802.9928,53898.6734,95.6806,0.3001,95.9807,0.3668,275,0.45,-275,0.4582,1;0;0,0,95.5811,1.0,1007.0,-583.0,1,0
31,96.3476,-53899.3403,-53802.9928,53900.1407,97.1479,0.3001,97.4480,0.3668,275,0.0088,-275,0.2009,0;0.5;0,0,97.0485,0.0,-1061.0,-473.0,1,1
32,97.8148,-53900.8076,-53802.9928,53901.3745,98.3817,0.3001,98.6818,0.3668,275,0.45,-275,0.6421,0;0.5;0,0,98.2907,0.0,-1073.0,-479.0,1,1
33,99.0487,-53902.0414,-53802.9928,53902.9752,99.9824,0.3001,100.2825,0.3668,-275,0.45,275,0.4582,0;0.5;0,1,99.8914,1.0,999.0,-585.0,1,1
34,100.6493,-53903.6421,-53802.9928,53905.2261,102.2333,0.3001,102.5334,0.3710,275,0.0088,-275,0.0117,1;0;0,0,102.1420,1.0,984.0,-642.0,1,0
35,102.9044,-53905.8972,-53802.9928,53906.3765,103.3837,0.3001,103.6839,0.3668,-275,0.45,275,0.6421,0;0.5;0,1,103.2927,1.0,1009.0,-585.0,1,1
36,104.0507,-53907.0435,-53802.9928,53907.8271,104.8343,0.3001,105.1345,0.3668,275,0.0167,-275,0.0196,0;0.5;0,0,104.7433,0.0,-1063.0,-467.0,1,1
37,105.5013,-53908.4941,-53802.9928,53909.0776,106.0848,0.3001,106.3850,0.3668,275,0.0088,-275,0.2009,0;0.5;0,0,105.9937,0.0,-1072.0,-446.0,1,1
38,106.7518,-53909.7446,-53802.9928,53910.4449,107.4521,0.3001,107.7522,0.3668,-275,0.45,275,0.4582,0;0.5;0,1,107.3527,1.0,1010.0,-583.0,1,1
39,108.1190,-53911.1118,-53802.9928,53911.7954,108.8026,0.3001,109.1027,0.3668,275,0.0167,-275,0.0177,0;0.5;0,0,108.7032,0.0,-1074.0,-481.0,1,1
40,109.4696,-53912.4623,-53802.9928,53913.0626,110.0698,0.3001,110.3699,0.3668,-275,0.2,275,1,0;0.5;0,1,109.9704,1.0,1006.0,-590.0,1,1
41,110.7367,-53913.7295,-53802.9928,53914.3131,111.3203,0.3001,111.6204,0.3668,275,0.05,-275,0.0735,1;0;0,0,111.2293,1.0,993.0,-612.0,1,0
42,111.9872,-53914.9800,-53802.9928,53915.4469,112.4541,0.3001,112.7542,0.3668,275,0.45,-275,1,0;0.5;0,0,112.3546,0.0,-1036.0,-552.0,1,1
43,113.1210,-53916.1138,-53802.9928,53916.5807,113.5879,0.3001,113.8880,0.3668,275,0.05,-275,0.2421,0;0.5;0,0,113.4969,0.0,-1019.0,-587.0,1,1
44,114.2548,-53917.2476,-53802.9928,53919.1151,116.1223,0.3001,116.4224,0.3668,275,0.2,-275,0.2235,1;0;0,0,116.0228,1.0,998.0,-596.0,1,0
45,116.7892,-53919.7820,-53802.9928,53920.4323,117.4395,0.3001,117.7396,0.3668,-275,0.2,275,0.3921,1;0;0,1,117.3485,0.0,-1113.0,-464.0,1,0
46,118.1064,-53921.0992,-53802.9928,53921.5827,118.5899,0.3001,118.8901,0.3668,-275,0.45,275,1,0;0.5;0,1,118.4905,1.0,1002.0,-604.0,1,1
47,119.2569,-53922.2497,-53802.9928,53922.6832,119.6904,0.3001,119.9905,0.3668,-275,0.05,275,0.6,0;0.5;0,1,119.5993,1.0,1006.0,-608.0,1,1
48,120.3573,-53923.3501,-53802.9928,53923.8670,120.8742,0.3001,121.1743,0.3668,275,0.0088,-275,0.0759,0;0.5;0,0,120.7831,0.0,-1079.0,-520.0,1,1
49,121.5411,-53924.5339,-53802.9928,53925.5844,122.5916,0.3001,122.8917,0.3668,275,0,-275,0.001,0;0.5;0,0,122.5005,0.0,-1040.0,-551.0,1,1
50,123.2585,-53926.2513,-53802.9928,53927.6519,124.6591,0.3001,124.9592,0.3668,-275,0.0088,275,0.017,1;0;0,1,124.5680,0.0,-1030.0,-545.0,1,0
51,125.3260,-53928.3188,-53802.9928,53928.9357,125.9429,0.3001,126.2430,0.3668,275,0.45,-275,0.6421,0;0.5;0,0,125.8434,0.0,-1048.0,-550.0,1,1
52,126.6099,-53929.6027,-53802.9928,53930.8532,127.8604,0.3001,128.1605,0.3668,-275,0,275,0.0082,0;0.5;0,1,127.7694,1.0,990.0,-619.0,1,1
53,128.5273,-53931.5201,-53802.9928,53934.1212,131.1284,0.3001,131.4285,0.3668,-275,0,275,0.001,0;0.5;0,1,131.0373,1.0,987.0,-617.0,1,1
54,131.7953,-53934.7881,-53802.9928,53935.5717,132.5790,0.3001,132.8791,0.3668,275,0.2,-275,0.2671,0;0.5;0,0,132.4795,0.0,-1038.0,-543.0,1,1
55,133.2459,-53936.2387,-53802.9928,53937.6059,134.6131,0.3001,134.9132,0.3668,275,0.05,-275,0.0582,1;0;0,0,134.5221,1.0,998.0,-604.0,1,0
56,135.2801,-53938.2728,-53802.9928,53938.9064,135.9136,0.3001,136.2138,0.3668,275,0.05,-275,0.0529,0;0.5;0,0,135.8226,0.0,-1055.0,-532.0,1,1
57,136.5806,-53939.5734,-53802.9928,53940.1403,137.1475,0.3001,137.4476,0.3668,-275,0.05,275,0.0582,0;0.5;0,1,137.0564,1.0,988.0,-604.0,1,1
58,137.8144,-53940.8072,-53802.9928,53941.3741,138.3813,0.3001,138.6814,0.3668,275,0.45,-275,0.5171,0;0.5;0,0,138.2903,0.0,-1049.0,-551.0,1,1
59,139.0483,-53942.0410,-53802.9928,53942.8414,139.8486,0.3001,140.1487,0.3668,-275,0.0088,275,0.017,0;0.5;0,1,139.7493,1.0,998.0,-587.0,1,1
60,140.5155,-53943.5083,-53802.9928,53944.0419,141.0491,0.3001,141.3492,0.3668,275,0.2,-275,0.3921,0;0.5;0,0,140.9580,0.0,-1023.0,-566.0,1,1
61,141.7160,-53944.7088,-53802.9928,53945.1090,142.1162,0.3001,142.4163,0.3668,-275,0.0088,275,0.2009,0;0.5;0,1,142.0251,1.0,988.0,-625.0,1,1
62,142.7831,-53945.7759,-53802.9928,53946.2928,143.3000,0.3001,143.6001,0.3668,275,0.0088,-275,0.2009,0;0.5;0,0,143.2005,0.0,-1035.0,-561.0,1,1
63,143.9669,-53946.9597,-53802.9928,53947.1598,144.1670,0.3001,144.4671,0.3668,-275,0,275,0.1921,0;0.5;0,1,144.0676,1.0,966.0,-621.0,1,1
64,144.8339,-53947.8267,-53802.9928,53948.7771,145.7843,0.3001,146.0845,0.3668,275,0.45,-275,0.4582,1;0;0,0,145.6850,1.0,972.0,-587.0,1,0
65,146.4513,-53949.4441,-53802.9928,53950.0610,147.0682,0.3001,147.3683,0.3668,275,0.0167,-275,0.0838,0;0.5;0,0,146.9772,0.0,-1035.0,-546.0,1,1
66,147.7351,-53950.7279,-53802.9928,53951.1447,148.1520,0.3001,148.4521,0.3668,-275,0.0088,275,0.0117,0;0.5;0,1,148.0609,1.0,971.0,-610.0,1,1
67,148.8189,-53951.8117,-53802.9928,53952.3786,149.3858,0.3001,149.6859,0.3668,275,0.2,-275,0.75,0;0.5;0,0,149.2948,0.0,-1044.0,-549.0,1,1
68,150.0527,-53953.0455,-53802.9928,53953.9626,150.9698,0.3001,151.2699,0.3668,-275,0.0167,275,0.0249,0;0.5;0,1,150.8704,1.0,985.0,-581.0,1,1
69,151.6367,-53954.6295,-53802.9928,53955.2297,152.2370,0.3001,152.5371,0.3668,-275,0.2,275,0.75,0;0.5;0,1,152.1459,1.0,994.0,-582.0,1,1
70,152.9039,-53955.8967,-53802.9928,53956.9138,153.9210,0.3001,154.2211,0.3668,275,0,-275,0.001,0;0.5;0,0,153.8300,0.0,-1054.0,-535.0,1,1
71,154.5879,-53957.5807,-53802.9928,53958.5644,155.5716,0.3001,155.8718,0.3668,-275,0.05,275,0.0582,1;0;0,1,155.4723,0.0,-1038.0,-551.0,1,0
72,156.2386,-53959.2314,-53802.9928,53959.6816,156.6888,0.3001,156.9889,0.3668,275,0.05,-275,0.0529,1;0;0,0,156.5978,1.0,979.0,-584.0,1,0
73,157.3557,-53960.3485,-53802.9928,53961.1321,158.1394,0.3001,158.4395,0.3668,275,0.0167,-275,0.0177,1;0;0,0,158.0483,1.0,973.0,-608.0,1,0
74,158.8063,-53961.7991,-53802.9928,53962.4327,159.4399,0.3001,159.7400,0.3668,-275,0.2,275,0.2235,1;0;0,1,159.3489,0.0,-1033.0,-556.0,1,0
75,160.1068,-53963.0996,-53802.9928,53963.4998,160.5070,0.3001,160.8071,0.3668,-275,0.2,275,0.2671,1;0;0,1,160.4075,0.0,-1033.0,-558.0,1,0
76,161.1739,-53964.1667,-53802.9928,53964.6502,161.6575,0.3001,161.9576,0.3668,275,0,-275,0.0082,1;0;0,0,161.5581,1.0,983.0,-592.0,1,0
77,162.3244,-53965.3172,-53802.9928,53965.7840,162.7912,0.3001,163.0914,0.3668,-275,0.2,275,1,0;0.5;0,1,162.7002,1.0,980.0,-595.0,1,1
78,163.4582,-53966.4510,-53802.9928,53966.7511,163.7583,0.3001,164.0584,0.3668,275,0.0167,-275,0.0177,0;0.5;0,0,163.6673,0.0,-1014.0,-560.0,1,1
79,164.4252,-53967.4180,-53802.9928,53967.6348,164.6420,0.3001,164.9421,0.3668,275,0,-275,0.001,1;0;0,0,164.5427,1.0,978.0,-602.0,1,0
80,165.3089,-53968.3017,-53802.9928,53970.8861,167.8933,0.3001,168.1934,0.3668,-275,0.2,275,0.2082,0;0.5;0,1,167.7941,1.0,982.0,-597.0,1,1
81,168.5603,-53971.5530,-53802.9928,53972.4201,169.4273,0.3001,169.7274,0.3668,-275,0.2,275,0.2235,0;0.5;0,1,169.3279,1.0,980.0,-584.0,1,1
82,170.0942,-53973.0870,-53802.9928,53975.4713,172.4785,0.3001,172.7786,0.3668,275,0.0088,-275,0.0117,0;0.5;0,0,172.3792,0.0,-1037.0,-554.0,1,1
83,173.1455,-53976.1382,-53802.9928,53977.1053,174.1125,0.3001,174.4126,0.3668,-275,0.45,275,0.4735,1;0;0,1,174.0131,0.0,-1022.0,-548.0,1,0
84,174.7795,-53977.7722,-53802.9928,53978.4392,175.4464,0.3001,175.7465,0.3668,275,0,-275,0.1921,1;0;0,0,175.3470,1.0,969.0,-612.0,1,0
85,176.1133,-53979.1061,-53802.9928,53979.7064,176.7136,0.3001,177.0137,0.3668,275,0.2,-275,1,0;0.5;0,0,176.6225,0.0,-1043.0,-553.0,1,1
86,177.3805,-53980.3733,-53802.9928,53981.7905,178.7978,0.3001,179.0979,0.3668,-275,0.05,275,0.0582,0;0.5;0,1,178.7066,1.0,959.0,-617.0,1,1
87,179.4647,-53982.4575,-53802.9928,53983.2912,180.2984,0.3001,180.5985,0.3668,-275,0.45,275,0.4735,0;0.5;0,1,180.1990,1.0,968.0,-606.0,1,1
88,180.9653,-53983.9581,-53802.9928,53984.5917,181.5989,0.3001,181.8990,0.3668,-275,0.45,275,0.5171,0;0.5;0,1,181.4993,1.0,985.0,-585.0,1,1
89,182.2658,-53985.2586,-53802.9928,53986.4925,183.4997,0.3001,183.7998,0.3668,-275,0.0088,275,0.0098,0;0.5;0,1,183.4087,1.0,961.0,-600.0,1,1
90,184.1666,-53987.1594,-53802.9928,53987.7763,184.7835,0.3001,185.0836,0.3668,275,0.0088,-275,0.2009,0;0.5;0,0,184.6842,0.0,-1027.0,-562.0,1,1
91,185.4505,-53988.4432,-53802.9928,53988.9601,185.9673,0.3001,186.2675,0.3668,-275,0.45,275,0.6421,0;0.5;0,1,185.8681,1.0,968.0,-597.0,1,1
92,186.6343,-53989.6271,-53802.9928,53990.1606,187.1678,0.3001,187.4679,0.3668,275,0.2,-275,0.3921,0;0.5;0,0,187.0769,0.0,-1035.0,-548.0,1,1
93,187.8348,-53990.8276,-53802.9928,53991.4445,188.4517,0.3001,188.7518,0.3668,275,0.05,-275,0.0529,1;0;0,0,188.3523,1.0,965.0,-592.0,1,0
94,189.1186,-53992.1114,-53802.9928,53992.3448,189.3520,0.3001,189.6522,0.3668,275,0.05,-275,0.6,0;0.5;0,0,189.2611,0.0,-1046.0,-536.0,1,1
95,190.0190,-53993.0118,-53802.9928,53993.2452,190.2524,0.3001,190.5525,0.3668,-275,0.05,275,0.1171,1;0;0,1,190.1615,0.0,-1026.0,-554.0,1,0
96,190.9194,-53993.9121,-53802.9928,53998.9475,195.9547,0.3001,196.2549,0.3668,275,0.45,-275,0.5171,1;0;0,0,195.8554,1.0,1011.0,-546.0,1,0
97,196.6217,-53999.6145,-53802.9928,54000.1355,197.1427,0.3001,197.4428,0.3626,275,0.0167,-275,0.0838,0;0.5;0,0,197.0475,0.0,-1004.0,-566.0,1,1
98,197.8055,-54000.7983,-53802.9928,54001.3151,198.3224,0.3001,198.6225,0.3668,275,0.05,-275,0.2421,0;0.5;0,0,198.2314,0.0,-987.0,-601.0,1,1
99,198.9893,-54001.9821,-53802.9928,54002.9158,199.9230,0.3001,200.2231,0.3668,-275,0.0088,275,0.0098,1;0;0,1,199.8321,0.0,-966.0,-627.0,1,0
100,200.5899,-54003.5827,-53802.9928,54003.8328,200.8401,0.3001,201.1402,0.3668,275,0.05,-275,0.0582,1;0;0,0,200.7490,1.0,988.0,-561.0,1,0
101,201.5070,-54004.4998,-53802.9928,54004.6832,201.6904,0.3001,201.9905,0.3668,-275,0.05,275,0.1171,1;0;0,1,201.5910,0.0,-957.0,-636.0,1,0
102,202.3573,-54005.3501,-53802.9928,54005.9337,202.9409,0.3001,203.2410,0.3668,-275,0.2,275,0.2082,0;0.5;0,1,202.8498,1.0,970.0,-575.0,1,1
103,203.6078,-54006.6006,-53802.9928,54007.2342,204.2414,0.3001,204.5416,0.3668,-275,0.05,275,0.6,0;0.5;0,1,204.1504,1.0,967.0,-579.0,1,1
104,204.9084,-54007.9012,-53802.9928,54008.5681,205.5753,0.3001,205.8754,0.3668,-275,0.0167,275,0.0838,0;0.5;0,1,205.4760,1.0,967.0,-591.0,1,1
105,206.2422,-54009.2350,-53802.9928,54013.6535,210.6607,0.3001,210.9608,0.3668,-275,0.0088,275,0.017,0;0.5;0,1,210.5614,1.0,933.0,-651.0,1,1
106,211.3276,-54014.3204,-53802.9928,54014.9540,211.9612,0.3001,212.2614,0.3668,275,0.05,-275,0.0582,1;0;0,0,211.8702,1.0,964.0,-608.0,1,0
107,212.6282,-54015.6210,-53802.9928,54015.7710,212.7782,0.3001,213.0784,0.3668,-275,0.05,275,0.0735,1;0;0,1,212.6788,0.0,-1004.0,-575.0,1,0
108,213.4452,-54016.4380,-53802.9928,54016.7381,213.7453,0.3001,214.0454,0.3668,275,0.0167,-275,0.0402,0;0.5;0,0,213.6541,0.0,-968.0,-613.0,1,1
109,214.4122,-54017.4050,-53802.9928,54017.8552,214.8624,0.3001,215.1625,0.3668,275,0,-275,0.1921,1;0;0,0,214.7630,1.0,957.0,-609.0,1,0
110,215.5294,-54018.5221,-53802.9928,54019.0223,216.0296,0.3001,216.3297,0.3668,-275,0.45,275,0.4735,0;0.5;0,1,215.9301,1.0,968.0,-598.0,1,1
111,216.6965,-54019.6893,-53802.9928,54020.2729,217.2801,0.3001,217.5802,0.3668,-275,0.45,275,1,0;0.5;0,1,217.1806,1.0,975.0,-594.0,1,1
112,217.9470,-54020.9398,-53802.9928,54021.6067,218.6139,0.3001,218.9141,0.3668,275,0.05,-275,0.1171,0;0.5;0,0,218.5146,0.0,-992.0,-609.0,1,1
113,219.2809,-54022.2737,-53802.9928,54022.8406,219.8478,0.3001,220.1479,0.3668,275,0.05,-275,0.0529,1;0;0,0,219.7568,1.0,968.0,-596.0,1,0
114,220.5147,-54023.5075,-53802.9928,54024.5413,221.5485,0.3001,221.8486,0.3668,-275,0.0167,275,0.0249,1;0;0,1,221.4575,0.0,-974.0,-624.0,1,0
115,222.2154,-54025.2082,-53802.9928,54025.4083,222.4155,0.3001,222.7156,0.3668,-275,0.2,275,0.75,0;0.5;0,1,222.3162,1.0,976.0,-580.0,1,1
116,223.0824,-54026.0752,-53802.9928,54026.7255,223.7327,0.3001,224.0328,0.3668,275,0.05,-275,0.1171,0;0.5;0,0,223.6333,0.0,-978.0,-632.0,1,1
117,224.3996,-54027.3924,-53802.9928,54027.8593,224.8665,0.3001,225.1666,0.3668,-275,0.0088,275,0.0323,0;0.5;0,1,224.7671,1.0,961.0,-600.0,1,1
118,225.5334,-54028.5262,-53802.9928,54028.7930,225.8002,0.3001,226.1003,0.3668,275,0.2,-275,0.2235,1;0;0,0,225.7092,1.0,959.0,-592.0,1,0
119,226.4671,-54029.4599,-53802.9928,54029.5600,226.5672,0.3001,226.8673,0.0000,-275,0.45,275,0.6421,0;0.5;0,1,226.4762,1.0,957.0,-606.0,1,1
120,226.8673,-54029.8601,-53802.9928,54030.2769,227.2841,0.3001,227.5843,0.3668,275,0.05,-275,0.6,0;0.5;0,0,227.1846,0.0,-964.0,-639.0,1,1
121,227.9511,-54030.9439,-53802.9928,54034.0284,231.0357,0.3001,231.3358,0.3668,-275,0.45,275,0.4735,0;0.5;0,1,230.9446,1.0,969.0,-600.0,1,1
122,231.7026,-54034.6954,-53802.9928,54035.5457,232.5529,0.3001,232.8531,0.3668,-275,0.0167,275,0.0402,0;0.5;0,1,232.4536,1.0,971.0,-584.0,1,1
123,233.2199,-54036.2127,-53802.9928,54036.3294,233.3366,0.3001,233.6367,0.3668,275,0,-275,0.0082,1;0;0,0,233.2371,1.0,965.0,-588.0,1,0
124,234.0035,-54036.9963,-53802.9928,54037.4965,234.5037,0.3001,234.8039,0.3668,-275,0.45,275,1,0;0.5;0,1,234.4127,1.0,978.0,-561.0,1,1
125,235.1707,-54038.1635,-53802.9928,54038.4469,235.4541,0.3001,235.7542,0.3668,275,0.2,-275,0.2671,1;0;0,0,235.3548,1.0,970.0,-574.0,1,0
126,236.1211,-54039.1138,-53802.9928,54039.3306,236.3378,0.3001,236.6379,0.3668,275,0.0167,-275,0.2088,1;0;0,0,236.2385,1.0,949.0,-605.0,1,0
127,237.0047,-54039.9975,-53802.9928,54040.9813,237.9885,0.3001,238.2886,0.3668,-275,0.0088,275,0.2009,0;0.5;0,1,237.8974,1.0,956.0,-603.0,1,1
128,238.6554,-54041.6482,-53802.9928,54041.8149,238.8222,0.3001,239.1223,0.3668,-275,0,275,0.1921,0;0.5;0,1,238.7312,1.0,956.0,-604.0,1,1
129,239.4891,-54042.4819,-53802.9928,54043.2655,240.2727,0.3001,240.5729,0.3668,-275,0.0167,275,0.0402,0;0.5;0,1,240.1734,1.0,948.0,-606.0,1,1
130,240.9397,-54043.9325,-53802.9928,54044.9162,241.9234,0.3001,242.2235,0.3668,-275,0.2,275,0.2671,0;0.5;0,1,241.8323,1.0,961.0,-597.0,1,1
131,242.5904,-54045.5831,-53802.9928,54047.0504,244.0576,0.3001,244.3577,0.3710,275,0.0167,-275,0.0196,0;0.5;0,0,243.9665,0.0,-1004.0,-583.0,1,1
132,244.7287,-54047.7215,-53802.9928,54048.4510,245.4582,0.3001,245.7583,0.3668,275,0.45,-275,0.4735,0;0.5;0,0,245.3587,0.0,-979.0,-599.0,1,1
133,246.1251,-54049.1179,-53802.9928,54049.7348,246.7420,0.3001,247.0422,0.3668,275,0.2,-275,0.75,0;0.5;0,0,246.6426,0.0,-1014.0,-555.0,1,1
134,247.4090,-54050.4018,-53802.9928,54051.4522,248.4594,0.3001,248.7595,0.3668,-275,0.05,275,0.0529,1;0;0,1,248.3600,0.0,-1044.0,-530.0,1,0
135,249.1263,-54052.1191,-53802.9928,54054.3033,251.3106,0.3001,251.6107,0.3668,275,0,-275,0.0671,1;0;0,0,251.2196,1.0,951.0,-599.0,1,0
136,251.9775,-54054.9703,-53802.9928,54055.1203,252.1276,0.3001,252.4277,0.3668,-275,0.0167,275,0.2088,1;0;0,1,252.0365,0.0,-1017.0,-561.0,1,0
137,252.7945,-54055.7873,-53802.9928,54055.9373,252.9446,0.3001,253.2447,0.3668,-275,0.2,275,0.2082,0;0.5;0,1,252.8535,1.0,966.0,-592.0,1,1
138,253.6115,-54056.6043,-53802.9928,54057.3212,254.3285,0.3001,254.6286,0.3668,-275,0.45,275,0.5171,0;0.5;0,1,254.2290,1.0,960.0,-589.0,1,1
139,254.9954,-54057.9882,-53802.9928,54058.7385,255.7457,0.3001,256.0458,0.3668,275,0.45,-275,0.5171,0;0.5;0,0,255.6463,0.0,-1023.0,-569.0,1,1
140,256.4126,-54059.4054,-53802.9928,54062.6567,259.6640,0.3001,259.9641,0.3668,-275,0.0167,275,0.0838,0;0.5;0,1,259.5727,1.0,963.0,-581.0,1,1
141,260.3309,-54063.3237,-53802.9928,54064.4741,261.4814,0.3001,261.7815,0.3668,275,0.0167,-275,0.0402,1;0;0,0,261.3819,1.0,957.0,-604.0,1,0
142,262.1483,-54065.1411,-53802.9928,54066.4916,263.4988,0.3001,263.7990,0.3668,-275,0,275,0.001,1;0;0,1,263.3994,0.0,-1034.0,-529.0,1,0
143,264.1658,-54067.1586,-53802.9928,54069.7930,266.8002,0.3001,267.1003,0.3668,-275,0.45,275,0.4735,0;0.5;0,1,266.7091,1.0,980.0,-551.0,1,1
144,267.4671,-54070.4599,-53802.9928,54071.0310,268.0382,0.2960,268.3341,0.3668,275,0,-275,0.0029,1;0;0,0,267.9346,1.0,973.0,-570.0,1,0
145,268.7010,-54071.6937,-53802.9928,54072.7108,269.7180,0.3001,270.0182,0.3668,-275,0.2,275,1,0;0.5;0,1,269.6268,1.0,949.0,-606.0,1,1
146,270.3850,-54073.3778,-53802.9928,54074.1447,271.1520,0.3001,271.4521,0.3668,275,0.45,-275,1,0;0.5;0,0,271.0609,0.0,-1068.0,-504.0,1,1
147,271.8189,-54074.8117,-53802.9928,54075.3952,272.4025,0.3001,272.7026,0.3668,-275,0.05,275,0.2421,0;0.5;0,1,272.3115,1.0,951.0,-596.0,1,1
148,273.0694,-54076.0622,-53802.9928,54076.8125,273.8197,0.3001,274.1198,0.3668,275,0,-275,0.0235,0;0.5;0,0,273.7287,0.0,-1039.0,-555.0,1,1
149,274.4866,-54077.4794,-53802.9928,54078.3298,275.3370,0.3001,275.6371,0.3668,275,0.2,-275,0.2082,1;0;0,0,275.2376,1.0,965.0,-569.0,1,0
150,276.0039,-54078.9967,-53802.9928,54079.8137,276.8209,0.3001,277.1210,0.3668,-275,0.2,275,0.2671,1;0;0,1,276.7216,0.0,-1024.0,-563.0,1,0
151,277.4879,-54080.4806,-53802.9928,54080.7808,277.7880,0.3001,278.0881,0.3668,275,0.05,-275,0.0735,0;0.5;0,0,277.6970,0.0,-1029.0,-519.0,1,1
152,278.4549,-54081.4477,-53802.9928,54084.3822,281.3894,0.3001,281.6896,0.3668,275,0,-275,0.0029,1;0;0,0,281.2901,1.0,941.0,-599.0,1,0
153,282.0564,-54085.0492,-53802.9928,54085.7995,282.8067,0.3001,283.1068,0.3668,275,0.45,-275,0.4582,1;0;0,0,282.7156,1.0,951.0,-594.0,1,0
154,283.4736,-54086.4664,-53802.9928,54087.0833,284.0905,0.3001,284.3907,0.3668,-275,0,275,0.001,0;0.5;0,1,283.9995,1.0,959.0,-584.0,1,1
155,284.7575,-54087.7503,-53802.9928,54088.2505,285.2577,0.3001,285.5578,0.3668,275,0.0088,-275,0.2009,0;0.5;0,0,285.1583,0.0,-1003.0,-590.0,1,1
156,285.9246,-54088.9174,-53802.9928,54089.3843,286.3915,0.3001,286.6916,0.3668,-275,0.2,275,0.2235,0;0.5;0,1,286.2921,1.0,950.0,-599.0,1,1
157,287.0584,-54090.0512,-53802.9928,54092.1020,289.1092,0.3001,289.4094,0.3668,275,0.45,-275,0.4735,1;0;0,0,289.0182,1.0,957.0,-584.0,1,0
158,289.7762,-54092.7690,-53802.9928,54094.0528,291.0600,0.3001,291.3602,0.3668,-275,0.0167,275,0.0177,1;0;0,1,290.9607,0.0,-1021.0,-551.0,1,0
159,291.7270,-54094.7198,-53802.9928,54095.4201,292.4273,0.3001,292.7274,0.3668,-275,0.05,275,0.0529,1;0;0,1,292.3363,0.0,-1027.0,-565.0,1,0
160,293.0942,-54096.0870,-53802.9928,54096.7873,293.7945,0.3001,294.0946,0.3668,-275,0.05,275,0.2421,0;0.5;0,1,293.6951,1.0,943.0,-591.0,1,1
161,294.4614,-54097.4542,-53802.9928,54098.8048,295.8120,0.3001,296.1121,0.3668,-275,0.0167,275,0.0177,0;0.5;0,1,295.7125,1.0,946.0,-590.0,1,1
162,296.4789,-54099.4717,-53802.9928,54101.7560,298.7632,0.3001,299.0633,0.3710,275,0.45,-275,0.4582,1;0;0,0,298.6721,1.0,944.0,-585.0,1,0
163,299.4343,-54102.4271,-53802.9928,54106.3245,303.3317,0.3001,303.6318,0.3668,-275,0.2,275,0.2671,0;0.5;0,1,303.2324,1.0,964.0,-584.0,1,1
164,303.9986,-54106.9914,-53802.9928,54108.2919,305.2992,0.3001,305.5993,0.3668,275,0.0088,-275,0.0098,1;0;0,0,305.2082,1.0,984.0,-539.0,1,0
165,305.9661,-54108.9589,-53802.9928,54115.1114,312.1186,0.3001,312.4187,0.3668,-275,0,275,0.0082,0;0.5;0,1,312.0192,1.0,965.0,-592.0,1,1
166,312.7855,-54115.7783,-53802.9928,54116.4453,313.4525,0.3001,313.7526,0.3668,275,0.05,-275,0.0529,0;0.5;0,0,313.3530,0.0,-1038.0,-547.0,1,1
167,314.1194,-54117.1122,-53802.9928,54117.6291,314.6363,0.3001,314.9364,0.3668,-275,0.2,275,1,0;0.5;0,1,314.5368,1.0,970.0,-620.0,1,1
168,315.3032,-54118.2960,-53802.9928,54118.9629,315.9702,0.3001,316.2703,0.3668,275,0.45,-275,0.4735,0;0.5;0,0,315.8792,0.0,-1000.0,-550.0,1,1
169,316.6371,-54119.6299,-53802.9928,54120.5803,317.5875,0.3001,317.8876,0.3668,275,0.0167,-275,0.0838,0;0.5;0,0,317.4880,0.0,-1024.0,-513.0,1,1
170,318.2544,-54121.2472,-53802.9928,54121.9642,318.9714,0.3001,319.2715,0.3668,275,0.2,-275,0.75,0;0.5;0,0,318.8718,0.0,-1116.0,-470.0,1,1
171,319.6383,-54122.6311,-53802.9928,54123.6982,320.7054,0.3001,321.0055,0.3668,275,0.2,-275,0.2671,0;0.5;0,0,320.6061,0.0,-1055.0,-525.0,1,1
172,321.3724,-54124.3651,-53802.9928,54126.3159,323.3231,0.3001,323.6233,0.3668,275,0.05,-275,0.1171,0;0.5;0,0,323.2236,0.0,-1046.0,-504.0,1,1
173,323.9901,-54126.9829,-53802.9928,54127.6832,324.6904,0.3001,324.9905,0.3668,275,0.2,-275,0.2671,0;0.5;0,0,324.5910,0.0,-1044.0,-543.0,1,1
174,325.3573,-54128.3501,-53802.9928,54134.1024,331.1096,0.3001,331.4098,0.3668,-275,0.0088,275,0.0759,1;0;0,1,331.0102,0.0,-1070.0,-512.0,1,0
175,331.7766,-54134.7694,-53802.9928,54135.3196,332.3268,0.3001,332.6269,0.3668,-275,0.0088,275,0.2009,0;0.5;0,1,332.2357,1.0,988.0,-631.0,1,1
176,332.9937,-54135.9865,-53802.9928,54136.9202,333.9274,0.3001,334.2276,0.3668,275,0.45,-275,0.4735,1;0;0,0,333.8280,1.0,999.0,-607.0,1,0
177,334.5944,-54137.5872,-53802.9928,54141.2053,338.2125,0.3001,338.5126,0.3668,-275,0.0088,275,0.0098,0;0.5;0,1,338.1215,1.0,1001.0,-595.0,1,1
178,338.8795,-54141.8722,-53802.9928,54142.5725,339.5797,0.3001,339.8799,0.3668,-275,0,275,0.0029,0;0.5;0,1,339.4888,1.0,1003.0,-587.0,1,1
179,340.2467,-54143.2395,-53802.9928,54143.9231,340.9303,0.3001,341.2304,0.3668,-275,0,275,0.0082,0;0.5;0,1,340.8309,1.0,993.0,-604.0,1,1
180,341.5972,-54144.5900,-53802.9928,54145.0402,342.0474,0.3001,342.3475,0.3668,275,0.45,-275,1,1;0;0,0,341.9565,1.0,983.0,-614.0,1,0
181,342.7144,-54145.7071,-53802.9928,54146.4074,343.4146,0.3001,343.7148,0.3668,-275,0.05,275,0.0582,1;0;0,1,343.3153,0.0,-1074.0,-544.0,1,0
182,344.0816,-54147.0744,-53802.9928,54148.1915,345.1987,0.3001,345.4988,0.3668,275,0.0167,-275,0.0177,1;0;0,0,345.1077,1.0,1028.0,-573.0,1,0
183,345.8656,-54148.8584,-53802.9928,54152.5432,349.5505,0.3001,349.8506,0.3668,275,0.45,-275,0.4735,1;0;0,0,349.4595,1.0,1057.0,-559.0,1,0
184,350.2174,-54153.2102,-53802.9928,54153.6270,350.6342,0.3001,350.9344,0.3668,-275,0,275,0.0082,1;0;0,1,350.5349,0.0,-1038.0,-575.0,1,0
185,351.3012,-54154.2940,-53802.9928,54155.1110,352.1182,0.3001,352.4183,0.3668,275,0.0088,-275,0.0323,0;0.5;0,0,352.0188,0.0,-1074.0,-551.0,1,1
186,352.7851,-54155.7779,-53802.9928,54156.5115,353.5187,0.3001,353.8189,0.3668,275,0.05,-275,0.0529,0;0.5;0,0,353.4193,0.0,-1079.0,-515.0,1,1
187,354.1857,-54157.1785,-53802.9928,54158.0455,355.0527,0.3001,355.3528,0.3668,-275,0.45,275,0.5171,0;0.5;0,1,354.9616,1.0,1007.0,-570.0,1,1
188,355.7196,-54158.7124,-53802.9928,54159.3794,356.3866,0.3001,356.6867,0.3668,275,0.05,-275,0.1171,0;0.5;0,0,356.2871,0.0,-1052.0,-522.0,1,1
189,357.0535,-54160.0463,-53802.9928,54161.6803,358.6875,0.3001,358.9876,0.3668,275,0,-275,0.001,1;0;0,0,358.5964,1.0,1008.0,-580.0,1,0
190,359.3544,-54162.3472,-53802.9928,54163.0308,360.0380,0.3001,360.3382,0.3668,275,0.0167,-275,0.0402,0;0.5;0,0,359.9386,0.0,-1087.0,-504.0,1,1
191,360.7050,-54163.6978,-53802.9928,54164.9483,361.9555,0.3001,362.2556,0.3668,275,0.0167,-275,0.0249,0;0.5;0,0,361.8562,0.0,-1055.0,-519.0,1,1
192,362.6224,-54165.6152,-53802.9928,54166.3822,363.3894,0.3001,363.6895,0.3668,275,0.2,-275,0.2082,0;0.5;0,0,363.2983,0.0,-1079.0,-495.0,1,1
193,364.0563,-54167.0491,-53802.9928,54167.5994,364.6066,0.3001,364.9067,0.3668,-275,0.05,275,0.6,0;0.5;0,1,364.5155,1.0,1003.0,-589.0,1,1
194,365.2735,-54168.2663,-53802.9928,54168.8665,365.8738,0.3001,366.1739,0.3668,275,0.45,-275,0.6421,0;0.5;0,0,365.7744,0.0,-1047.0,-531.0,1,1
195,366.5407,-54169.5335,-53802.9928,54171.6510,368.6582,0.3001,368.9583,0.3668,-275,0,275,0.001,0;0.5;0,1,368.5588,1.0,1031.0,-574.0,1,1
196,369.3252,-54172.3179,-53802.9928,54172.8723,369.8795,0.2960,370.1755,0.3668,-275,0.2,275,0.75,0;0.5;0,1,369.7760,1.0,1021.0,-576.0,1,1
197,370.5423,-54173.5351,-53802.9928,54174.6856,371.6928,0.3001,371.9929,0.3668,-275,0.05,275,0.0735,1;0;0,1,371.5933,0.0,-1054.0,-536.0,1,0
198,372.3597,-54175.3525,-53802.9928,54176.2028,373.2101,0.3001,373.5102,0.3668,275,0,-275,0.0029,1;0;0,0,373.1107,1.0,1013.0,-580.0,1,0
199,373.8770,-54176.8698,-53802.9928,54178.0703,375.0775,0.3001,375.3776,0.3668,275,0.0167,-275,0.0249,1;0;0,0,374.9782,1.0,1036.0,-610.0,1,0
200,375.7444,-54178.7372,-53802.9928,54178.9540,375.9612,0.3001,376.2613,0.3668,275,0.05,-275,0.0529,0;0.5;0,0,375.8702,0.0,-1029.0,-602.0,1,1
201,376.6281,-54179.6209,-53802.9928,54180.3712,377.3784,0.3001,377.6785,0.3668,-275,0.45,275,0.4582,1;0;0,1,377.2873,0.0,-1014.0,-533.0,1,0
202,378.0454,-54181.0381,-53802.9928,54185.6900,382.6972,0.3001,382.9974,0.3668,275,0.0088,-275,0.017,1;0;0,0,382.5977,1.0,1028.0,-608.0,1,0
203,383.3642,-54186.3570,-53802.9928,54186.9239,383.9311,0.3001,384.2312,0.3668,-275,0,275,0.0029,1;0;0,1,383.8398,0.0,-992.0,-508.0,1,0
204,384.5980,-54187.5908,-53802.9928,54187.7742,384.7814,0.3001,385.0815,0.3668,275,0.0088,-275,0.0759,1;0;0,0,384.6904,1.0,1041.0,-600.0,1,0
205,385.4484,-54188.4411,-53802.9928,54188.5745,385.5817,0.3001,385.8819,0.3668,-275,0.0088,275,0.0098,0;0.5;0,1,385.4906,1.0,1035.0,-610.0,1,1
206,386.2487,-54189.2415,-53802.9928,54189.7250,386.7322,0.3001,387.0323,0.3668,275,0,-275,0.0235,0;0.5;0,0,386.6328,0.0,-996.0,-525.0,1,1
207,387.3992,-54190.3919,-53802.9928,54190.6587,387.6659,0.3001,387.9661,0.3668,275,0.05,-275,0.0582,1;0;0,0,387.5747,1.0,1047.0,-592.0,1,0
208,388.3329,-54191.3257,-53802.9928,54191.8425,388.8497,0.3001,389.1499,0.3668,275,0.0167,-275,0.2088,0;0.5;0,0,388.7503,0.0,-996.0,-535.0,1,1
209,389.5167,-54192.5095,-53802.9928,54193.3598,390.3670,0.3001,390.6671,0.3668,-275,0,275,0.001,0;0.5;0,1,390.2676,1.0,1032.0,-596.0,1,1
210,391.0340,-54194.0267,-53802.9928,54194.2769,391.2841,0.3001,391.5842,0.3668,275,0.0167,-275,0.0196,0;0.5;0,0,391.1848,0.0,-963.0,-581.0,1,1
211,391.9510,-54194.9438,-53802.9928,54195.5607,392.5679,0.3001,392.8680,0.3668,-275,0.0088,275,0.0117,0;0.5;0,1,392.4685,1.0,1022.0,-608.0,1,1
212,393.2349,-54196.2276,-53802.9928,54196.8779,393.8851,0.3001,394.1852,0.3668,275,0.45,-275,0.6421,0;0.5;0,0,393.7857,0.0,-976.0,-561.0,1,1
213,394.5521,-54197.5448,-53802.9928,54198.3285,395.3357,0.3001,395.6358,0.3668,275,0,-275,0.0029,1;0;0,0,395.2448,1.0,1036.0,-600.0,1,0
214,396.0026,-54198.9954,-53802.9928,54199.1788,396.1861,0.3001,396.4862,0.3668,-275,0.05,275,0.2421,1;0;0,1,396.0866,0.0,-971.0,-567.0,1,0
215,396.8530,-54199.8458,-53802.9928,54200.1126,397.1198,0.3001,397.4199,0.3668,-275,0,275,0.0082,0;0.5;0,1,397.0204,1.0,1032.0,-606.0,1,1
216,397.7867,-54200.7795,-53802.9928,54201.2463,398.2536,0.3001,398.5537,0.3668,-275,0.2,275,0.75,0;0.5;0,1,398.1625,1.0,1019.0,-615.0,1,1
217,398.9205,-54201.9133,-53802.9928,54202.1634,399.1706,0.3001,399.4707,0.3668,-275,0.45,275,0.4582,0;0.5;0,1,399.0796,1.0,1028.0,-587.0,1,1
218,399.8375,-54202.8303,-53802.9928,54203.1471,400.1543,0.3001,400.4545,0.3668,-275,0.2,275,0.3921,0;0.5;0,1,400.0633,1.0,1023.0,-615.0,1,1
219,400.8213,-54203.8141,-53802.9928,54204.4810,401.4882,0.3001,401.7883,0.3668,275,0,-275,0.1921,0;0.5;0,0,401.3888,0.0,-978.0,-591.0,1,1
220,402.1551,-54205.1479,-53802.9928,54209.4497,406.4569,0.3001,406.7570,0.3668,275,0,-275,0.001,1;0;0,0,406.3660,1.0,1025.0,-622.0,1,0
221,407.1238,-54210.1166,-53802.9928,54210.2667,407.2739,0.3001,407.5740,0.3668,275,0.05,-275,0.2421,1;0;0,0,407.1828,1.0,1043.0,-614.0,1,0
222,407.9408,-54210.9336,-53802.9928,54211.3838,408.3910,0.3001,408.6911,0.3668,-275,0.2,275,0.2671,1;0;0,1,408.2916,0.0,-973.0,-594.0,1,0
223,409.0579,-54212.0507,-53802.9928,54212.5176,409.5248,0.3001,409.8249,0.3668,-275,0.05,275,0.6,0;0.5;0,1,409.4336,1.0,1046.0,-604.0,1,1
224,410.1917,-54213.1845,-53802.9928,54215.1853,412.1925,0.3001,412.4927,0.3668,-275,0.2,275,0.2082,1;0;0,1,412.1015,0.0,-956.0,-600.0,1,0
225,412.8595,-54215.8523,-53802.9928,54216.3525,413.3597,0.3001,413.6598,0.3668,275,0.0167,-275,0.2088,0;0.5;0,0,413.2603,0.0,-961.0,-602.0,1,1
226,414.0266,-54217.0194,-53802.9928,54217.5863,414.5935,0.3001,414.8936,0.3668,-275,0.2,275,0.3921,0;0.5;0,1,414.5024,1.0,1035.0,-615.0,1,1
227,415.2605,-54218.2532,-53802.9928,54218.6534,415.6606,0.3001,415.9607,0.3668,275,0,-275,0.0671,1;0;0,0,415.5612,1.0,1038.0,-610.0,1,0
228,416.3276,-54219.3203,-53802.9928,54219.4871,416.4943,0.3001,416.7944,0.3668,-275,0.05,275,0.0735,0;0.5;0,1,416.4033,1.0,1038.0,-614.0,1,1
229,417.1612,-54220.1540,-53802.9928,54220.6209,417.6281,0.3001,417.9282,0.3668,275,0.45,-275,0.4735,1;0;0,0,417.5287,1.0,1028.0,-623.0,1,0
230,418.2950,-54221.2878,-53802.9928,54221.6546,418.6618,0.3001,418.9620,0.3668,275,0.0088,-275,0.0117,0;0.5;0,0,418.5625,0.0,-973.0,-609.0,1,1
231,419.3288,-54222.3216,-53802.9928,54222.4383,419.4455,0.3001,419.7456,0.3668,275,0.2,-275,0.2235,0;0.5;0,0,419.3545,0.0,-964.0,-612.0,1,1
232,420.1124,-54223.1052,-53802.9928,54223.2553,420.2625,0.3001,420.5626,0.3668,-275,0.45,275,0.6421,0;0.5;0,1,420.1629,1.0,1077.0,-584.0,1,1
233,420.9294,-54223.9222,-53802.9928,54224.4558,421.4630,0.3001,421.7631,0.3668,-275,0.0167,275,0.0177,0;0.5;0,1,421.3636,1.0,1050.0,-612.0,1,1
234,422.1299,-54225.1227,-53802.9928,54225.3228,422.3300,0.3001,422.6301,0.0000,-275,0.0088,275,0.0759,0;0.5;0,1,422.2305,1.0,1037.0,-618.0,1,1
235,422.6301,-54225.6229,-53802.9928,54226.0397,423.0469,0.3001,423.3471,0.3668,275,0,-275,0.0671,1;0;0,0,422.9475,1.0,1037.0,-621.0,1,0
236,423.7139,-54226.7067,-53802.9928,54226.8067,423.8139,0.3001,424.1140,0.3668,-275,0.0167,275,0.0196,0;0.5;0,1,423.7228,1.0,1047.0,-611.0,1,1
237,424.4809,-54227.4737,-53802.9928,54227.7238,424.7310,0.3001,425.0311,0.3668,275,0,-275,0.0082,1;0;0,0,424.6400,1.0,1028.0,-645.0,1,0
238,425.3979,-54228.3907,-53802.9928,54228.5741,425.5813,0.3001,425.8814,0.3668,275,0.0088,-275,0.0323,1;0;0,0,425.4819,1.0,1009.0,-675.0,1,0
239,426.2482,-54229.2410,-53802.9928,54229.3744,426.3816,0.3001,426.6818,0.3668,-275,0.0088,275,0.0098,0;0.5;0,1,426.2906,1.0,998.0,-690.0,1,1
240,427.0486,-54230.0414,-53802.9928,54230.2915,427.2987,0.3001,427.5988,0.3668,275,0.05,-275,0.0735,1;0;0,0,427.2078,1.0,1004.0,-680.0,1,0
241,427.9656,-54230.9584,-53802.9928,54231.1918,428.1990,0.3001,428.4992,0.3668,-275,0.45,275,1,0;0.5;0,1,428.1080,1.0,1004.0,-671.0,1,1
242,428.8660,-54231.8588,-53802.9928,54235.4602,432.4674,0.3001,432.7676,0.3668,-275,0,275,0.001,1;0;0,1,432.3680,0.0,-992.0,-619.0,1,0
243,433.1344,-54236.1272,-53802.9928,54236.3606,433.3678,0.3001,433.6679,0.3668,-275,0.05,275,0.1171,0;0.5;0,1,433.2684,1.0,1026.0,-650.0,1,1
244,434.0347,-54237.0275,-53802.9928,54237.3610,434.3682,0.3001,434.6683,0.3668,275,0.0088,-275,0.0759,0;0.5;0,0,434.2689,0.0,-999.0,-607.0,1,1
245,435.0351,-54238.0279,-53802.9928,54238.5948,435.6020,0.3001,435.9022,0.3668,275,0.2,-275,0.75,0;0.5;0,0,435.5027,0.0,-1010.0,-602.0,1,1
246,436.2690,-54239.2618,-53802.9928,54239.8287,436.8359,0.3001,437.1360,0.3668,275,0.0167,-275,0.2088,0;0.5;0,0,436.7364,0.0,-1048.0,-575.0,1,1
247,437.5028,-54240.4956,-53802.9928,54246.3313,443.3385,0.3001,443.6386,0.3668,275,0.0167,-275,0.2088,1;0;0,0,443.2391,1.0,1064.0,-613.0,1,0
248,444.0054,-54246.9982,-53802.9928,54247.4984,444.5057,0.3001,444.8058,0.3668,275,0,-275,0.1921,0;0.5;0,0,444.4062,0.0,-1018.0,-622.0,1,1
249,445.1726,-54248.1654,-53802.9928,54249.0491,446.0563,0.3001,446.3564,0.3668,-275,0.0167,275,0.0249,1;0;0,1,445.9652,0.0,-1013.0,-614.0,1,0
250,446.7232,-54249.7160,-53802.9928,54250.2329,447.2401,0.3001,447.5402,0.3668,275,0.0167,-275,0.0838,0;0.5;0,0,447.1489,0.0,-1009.0,-641.0,1,1
251,447.9070,-54250.8998,-53802.9928,54251.5834,448.5906,0.3001,448.8908,0.3668,-275,0.2,275,0.2671,1;0;0,1,448.4996,0.0,-958.0,-660.0,1,0
252,449.2576,-54252.2504,-53802.9928,54252.9340,449.9412,0.3001,450.2413,0.3668,275,0.0167,-275,0.2088,0;0.5;0,0,449.8418,0.0,-964.0,-617.0,1,1
253,450.6081,-54253.6009,-53802.9928,54254.4513,451.4585,0.3001,451.7586,0.3668,-275,0.0167,275,0.0838,0;0.5;0,1,451.3592,1.0,1048.0,-632.0,1,1
254,452.1254,-54255.1182,-53802.9928,54256.5188,453.5260,0.3001,453.8261,0.3668,275,0.05,-275,0.0735,0;0.5;0,0,453.4349,0.0,-996.0,-591.0,1,1
255,454.1929,-54257.1857,-53802.9928,54257.8026,454.8098,0.3001,455.1100,0.3668,-275,0.05,275,0.1171,0;0.5;0,1,454.7104,1.0,1067.0,-602.0,1,1
256,455.4768,-54258.4696,-53802.9928,54259.0865,456.0937,0.3001,456.3938,0.3668,275,0.05,-275,0.0735,0;0.5;0,0,455.9942,0.0,-990.0,-599.0,1,1
257,456.7606,-54259.7534,-53802.9928,54262.2377,459.2450,0.3001,459.5451,0.3668,275,0,-275,0.0082,1;0;0,0,459.1456,1.0,1048.0,-613.0,1,0
258,459.9119,-54262.9047,-53802.9928,54263.3549,460.3621,0.3001,460.6622,0.3668,-275,0.2,275,0.75,0;0.5;0,1,460.2627,1.0,1042.0,-613.0,1,1
259,461.0290,-54264.0218,-53802.9928,54264.5554,461.5626,0.3001,461.8627,0.3668,275,0.0167,-275,0.2088,0;0.5;0,0,461.4714,0.0,-1014.0,-582.0,1,1
260,462.2295,-54265.2223,-53802.9928,54265.8392,462.8464,0.3001,463.1465,0.3668,-275,0.45,275,1,0;0.5;0,1,462.7470,1.0,1033.0,-597.0,1,1
261,463.5134,-54266.5061,-53802.9928,54267.2064,464.2136,0.3001,464.5138,0.3668,-275,0.0167,275,0.0838,0;0.5;0,1,464.1143,1.0,1027.0,-613.0,1,1
262,464.8806,-54267.8734,-53802.9928,54268.3736,465.3808,0.3001,465.6809,0.3668,-275,0,275,0.0671,0;0.5;0,1,465.2898,1.0,1031.0,-609.0,1,1
263,466.0477,-54269.0405,-53802.9928,54269.5574,466.5646,0.3001,466.8647,0.3668,-275,0.0167,275,0.0838,0;0.5;0,1,466.4735,1.0,1014.0,-636.0,1,1
264,467.2315,-54270.2243,-53802.9928,54271.7416,468.7488,0.3001,469.0489,0.3668,-275,0.05,275,0.0529,0;0.5;0,1,468.6494,1.0,1014.0,-616.0,1,1
265,469.4158,-54272.4085,-53802.9928,54276.1434,473.1506,0.3001,473.4507,0.3668,-275,0.45,275,0.4582,0;0.5;0,1,473.0594,1.0,1061.0,-595.0,1,1
266,473.8175,-54276.8103,-53802.9928,54279.8616,476.8688,0.3001,477.1689,0.3668,275,0,-275,0.0029,1;0;0,0,476.7778,1.0,1024.0,-621.0,1,0
267,477.5357,-54280.5285,-53802.9928,54281.3122,478.3194,0.3001,478.6195,0.3668,275,0.2,-275,0.2082,0;0.5;0,0,478.2282,0.0,-970.0,-546.0,1,1
268,478.9863,-54281.9791,-53802.9928,54282.5960,479.6032,0.3001,479.9033,0.3668,-275,0.05,275,0.1171,0;0.5;0,1,479.5121,1.0,1052.0,-594.0,1,1
269,480.2702,-54283.2629,-53802.9928,54284.9636,481.9708,0.3001,482.2710,0.3668,-275,0,275,0.0671,0;0.5;0,1,481.8797,1.0,1036.0,-605.0,1,1
270,482.6378,-54285.6306,-53802.9928,54286.1141,483.1213,0.3001,483.4214,0.3668,-275,0.2,275,1,0;0.5;0,1,483.0218,1.0,1052.0,-605.0,1,1
271,483.7882,-54286.7810,-53802.9928,54287.5814,484.5886,0.3001,484.8887,0.3668,275,0.45,-275,0.5171,0;0.5;0,0,484.4976,0.0,-975.0,-597.0,1,1
272,485.2555,-54288.2483,-53802.9928,54289.2987,486.3059,0.3001,486.6061,0.3668,275,0.05,-275,0.0582,0;0.5;0,0,486.2065,0.0,-961.0,-581.0,1,1
273,486.9729,-54289.9657,-53802.9928,54290.6993,487.7065,0.3001,488.0066,0.3668,275,0.0167,-275,0.0838,0;0.5;0,0,487.6071,0.0,-973.0,-585.0,1,1
274,488.3734,-54291.3662,-53802.9928,54292.3166,489.3238,0.3001,489.6239,0.3668,275,0,-275,0.0235,0;0.5;0,0,489.2243,0.0,-966.0,-611.0,1,1
275,489.9908,-54292.9835,-53802.9928,54294.2841,491.2913,0.3001,491.5914,0.3668,275,0.05,-275,0.0529,1;0;0,0,491.1918,1.0,1009.0,-633.0,1,0
276,491.9582,-54294.9510,-53802.9928,54295.5679,492.5751,0.3001,492.8753,0.3668,275,0.05,-275,0.1171,0;0.5;0,0,492.4841,0.0,-1014.0,-536.0,1,1
277,493.2421,-54296.2349,-53802.9928,54296.7851,493.7923,0.3001,494.0924,0.3668,275,0.2,-275,0.2082,0;0.5;0,0,493.7013,0.0,-1005.0,-556.0,1,1
278,494.4592,-54297.4520,-53802.9928,54299.4362,496.4434,0.3001,496.7435,0.3668,-275,0.0088,275,0.0098,1;0;0,1,496.3440,0.0,-990.0,-589.0,1,0
279,497.1103,-54300.1031,-53802.9928,54300.7742,497.7814,0.3001,498.0815,0.3668,-275,0.05,275,0.0735,1;0;0,1,497.6862,0.0,-1022.0,-538.0,1,0
280,498.4484,-54301.4411,-53802.9928,54301.7079,498.7151,0.2960,499.0111,0.3668,275,0.0167,-275,0.0838,1;0;0,0,498.6116,1.0,1025.0,-622.0,1,0
281,499.3779,-54302.3707,-53802.9928,54304.3382,501.3454,0.3001,501.6455,0.3668,-275,0.0167,275,0.0838,1;0;0,1,501.2543,0.0,-1009.0,-579.0,1,0
282,502.0123,-54305.0051,-53802.9928,54305.2218,502.2291,0.3001,502.5292,0.3668,275,0.2,-275,0.2235,1;0;0,0,502.1381,1.0,1060.0,-599.0,1,0
283,502.8960,-54305.8888,-53802.9928,54306.4223,503.4295,0.3001,503.7297,0.3668,-275,0.05,275,0.0582,0;0.5;0,1,503.3385,1.0,1044.0,-623.0,1,1
284,504.0965,-54307.0893,-53802.9928,54307.9563,504.9635,0.3001,505.2636,0.3668,-275,0.05,275,0.1171,0;0.5;0,1,504.8641,1.0,1014.0,-636.0,1,1
285,505.6304,-54308.6232,-53802.9928,54309.1734,506.1807,0.3001,506.4808,0.3668,-275,0.05,275,0.2421,0;0.5;0,1,506.0896,1.0,1013.0,-634.0,1,1
286,506.8476,-54309.8404,-53802.9928,54310.3739,507.3811,0.3001,507.6813,0.3668,-275,0.45,275,0.4735,1;0;0,1,507.2817,0.0,-981.0,-551.0,1,0
287,508.0481,-54311.0409,-53802.9928,54312.4081,509.4153,0.3001,509.7154,0.3668,-275,0.0167,275,0.0177,0;0.5;0,1,509.3159,1.0,1008.0,-636.0,1,1
288,510.0822,-54313.0750,-53802.9928,54314.3422,511.3494,0.3001,511.6495,0.3668,-275,0.05,275,0.0529,0;0.5;0,1,511.2584,1.0,1057.0,-602.0,1,1
289,512.0164,-54315.0091,-53802.9928,54315.8428,512.8500,0.3001,513.1502,0.3668,-275,0.0167,275,0.2088,0;0.5;0,1,512.7507,1.0,1043.0,-607.0,1,1
290,513.5170,-54316.5098,-53802.9928,54316.9266,513.9338,0.3001,514.2339,0.0000,-275,0,275,0.0671,0;0.5;0,1,513.8427,1.0,1030.0,-603.0,1,1
291,514.2339,-54317.2267,-53802.9928,54317.6435,514.6508,0.3001,514.9509,0.3668,275,0.0088,-275,0.017,1;0;0,0,514.5513,1.0,1030.0,-618.0,1,0
292,515.3177,-54318.3105,-53802.9928,54318.8607,515.8679,0.3001,516.1680,0.3668,-275,0.2,275,0.3921,0;0.5;0,1,515.7769,1.0,1018.0,-624.0,1,1
293,516.5349,-54319.5276,-53802.9928,54320.0445,517.0517,0.3001,517.3519,0.3668,-275,0.2,275,0.75,0;0.5;0,1,516.9523,1.0,1047.0,-598.0,1,1
294,517.7187,-54320.7115,-53802.9928,54321.4451,518.4523,0.3001,518.7524,0.3668,275,0.0088,-275,0.0759,0;0.5;0,0,518.3613,0.0,-1016.0,-528.0,1,1
295,519.1192,-54322.1120,-53802.9928,54322.7790,519.7862,0.3001,520.0863,0.3668,275,0.45,-275,0.4735,0;0.5;0,0,519.6869,0.0,-1003.0,-522.0,1,1
296,520.4531,-54323.4459,-53802.9928,54323.9794,520.9867,0.3001,521.2868,0.3668,-275,0.05,275,0.1171,0;0.5;0,1,520.8957,1.0,1033.0,-603.0,1,1
297,521.6536,-54324.6464,-53802.9928,54331.3991,528.4063,0.3001,528.7065,0.3668,275,0.0167,-275,0.0249,1;0;0,0,528.3070,1.0,1036.0,-581.0,1,0
298,529.0733,-54332.0661,-53802.9928,54332.6996,529.7069,0.3001,530.0070,0.3668,275,0.2,-275,1,0;0.5;0,0,529.6074,0.0,-977.0,-560.0,1,1
299,530.3738,-54333.3666,-53802.9928,54335.8509,532.8581,0.3001,533.1583,0.3668,-275,0.2,275,0.2235,0;0.5;0,1,532.7587,1.0,1014.0,-610.0,1,1
300,533.5251,-54336.5179,-53802.9928,54337.0848,534.0920,0.3001,534.3921,0.3668,275,0.45,-275,1,0;0.5;0,0,533.9926,0.0,-1010.0,-527.0,1,1
301,534.7589,-54337.7517,-53802.9928,54339.1356,536.1428,0.3001,536.4429,0.3668,275,0.2,-275,0.2671,0;0.5;0,0,536.0432,0.0,-999.0,-554.0,1,1
302,536.8097,-54339.8025,-53802.9928,54342.6537,539.6609,0.3001,539.9610,0.3668,-275,0.0088,275,0.0117,0;0.5;0,1,539.5698,1.0,1037.0,-622.0,1,1
303,540.3278,-54343.3206,-53802.9928,54344.8712,541.8785,0.3001,542.1786,0.3668,275,0.0088,-275,0.017,1;0;0,0,541.7874,1.0,1034.0,-620.0,1,0
304,542.5454,-54345.5382,-53802.9928,54347.5890,544.5962,0.3001,544.8964,0.3668,-275,0.0088,275,0.0759,0;0.5;0,1,544.5051,1.0,994.0,-686.0,1,1
305,545.2632,-54348.2560,-53802.9928,54348.8062,545.8134,0.3001,546.1135,0.3668,-275,0.0088,275,0.0323,0;0.5;0,1,545.7138,1.0,1054.0,-631.0,1,1
306,546.4803,-54349.4731,-53802.9928,54350.5069,547.5141,0.3001,547.8142,0.3668,-275,0.0088,275,0.0323,0;0.5;0,1,547.4230,1.0,1011.0,-626.0,1,1
307,548.1810,-54351.1738,-53802.9928,54351.4739,548.4811,0.3001,548.7813,0.3668,-275,0.0088,275,0.0117,0;0.5;0,1,548.3902,1.0,998.0,-629.0,1,1
308,549.1481,-54352.1409,-53802.9928,54353.1746,550.1818,0.3001,550.4819,0.3668,-275,0.2,275,0.3921,0;0.5;0,1,550.0824,1.0,1002.0,-640.0,1,1
309,550.8488,-54353.8416,-53802.9928,54355.7923,552.7996,0.3001,553.0997,0.3668,275,0.05,-275,0.0582,1;0;0,0,552.7085,1.0,1058.0,-600.0,1,0
310,553.4665,-54356.4593,-53802.9928,54357.5764,554.5836,0.3001,554.8837,0.3668,275,0.2,-275,1,1;0;0,0,554.4925,1.0,1054.0,-594.0,1,0
311,555.2505,-54358.2433,-53802.9928,54358.7936,555.8008,0.3001,556.1009,0.3668,275,0.2,-275,0.3921,1;0;0,0,555.7096,1.0,1030.0,-604.0,1,0
312,556.4677,-54359.4605,-53802.9928,54363.2120,560.2192,0.3001,560.5194,0.3668,-275,0.05,275,0.0582,0;0.5;0,1,560.1282,1.0,1016.0,-542.0,1,1
313,560.8862,-54363.8790,-53802.9928,54365.7797,562.7869,0.3001,563.0871,0.3710,275,0,-275,0.001,1;0;0,0,562.6875,1.0,1009.0,-620.0,1,0
314,563.4580,-54366.4508,-53802.9928,54368.4308,565.4380,0.3001,565.7381,0.3668,-275,0.0167,275,0.2088,0;0.5;0,1,565.3470,1.0,1010.0,-610.0,1,1
315,566.1049,-54369.0977,-53802.9928,54370.0481,567.0553,0.3001,567.3555,0.3668,275,0.2,-275,0.75,0;0.5;0,0,566.9560,0.0,-913.0,-565.0,1,1
316,567.7223,-54370.7151,-53802.9928,54374.3665,571.3737,0.3001,571.6739,0.3668,-275,0,275,0.0082,0;0.5;0,1,571.2828,1.0,965.0,-547.0,1,1
317,572.0407,-54375.0335,-53802.9928,54376.1006,573.1078,0.3001,573.4079,0.3668,275,0.05,-275,0.0735,0;0.5;0,0,573.0168,0.0,-854.0,-620.0,1,1
318,573.7747,-54376.7675,-53802.9928,54377.2677,574.2749,0.3001,574.5750,0.3668,-275,0.05,275,0.6,0;0.5;0,1,574.1756,1.0,960.0,-578.0,1,1
319,574.9419,-54377.9346,-53802.9928,54379.0351,576.0423,0.3001,576.3424,0.3668,-275,0.2,275,0.2235,1;0;0,1,575.9512,0.0,-916.0,-537.0,1,0
320,576.7092,-54379.7020,-53802.9928,54380.5190,577.5262,0.3001,577.8264,0.3668,275,0.45,-275,0.4582,1;0;0,0,577.4269,1.0,985.0,-565.0,1,0
321,578.1932,-54381.1860,-53802.9928,54382.0863,579.0935,0.3001,579.3937,0.3668,275,0.0088,-275,0.0759,0;0.5;0,0,578.9941,0.0,-973.0,-517.0,1,1
322,579.7605,-54382.7533,-53802.9928,54384.7207,581.7279,0.3001,582.0281,0.3668,-275,0,275,0.0029,0;0.5;0,1,581.6286,1.0,992.0,-594.0,1,1
323,582.3949,-54385.3877,-53802.9928,54386.0880,583.0952,0.3001,583.3953,0.3668,-275,0.0167,275,0.0249,0;0.5;0,1,583.0042,1.0,999.0,-584.0,1,1
324,583.7621,-54386.7549,-53802.9928,54387.5552,584.5624,0.3001,584.8625,0.3668,-275,0.05,275,0.0582,1;0;0,1,584.4714,0.0,-943.0,-541.0,1,0
325,585.2294,-54388.2221,-53802.9928,54388.8557,585.8630,0.3001,586.1631,0.3668,-275,0.05,275,0.2421,0;0.5;0,1,585.7636,1.0,1020.0,-575.0,1,1
326,586.5299,-54389.5227,-53802.9928,54390.4564,587.4636,0.3001,587.7637,0.3668,-275,0.0167,275,0.0249,0;0.5;0,1,587.3725,1.0,1036.0,-567.0,1,1
327,588.1305,-54391.1233,-53802.9928,54392.5072,589.5144,0.3001,589.8146,0.3668,275,0.0088,-275,0.0117,1;0;0,0,589.4149,1.0,1019.0,-569.0,1,0
328,590.1814,-54393.1742,-53802.9928,54393.8578,590.8650,0.3001,591.1651,0.3668,-275,0.2,275,0.3921,0;0.5;0,1,590.7657,1.0,1009.0,-592.0,1,1
329,591.5319,-54394.5247,-53802.9928,54396.1754,593.1826,0.3001,593.4827,0.3668,275,0.0167,-275,0.0196,1;0;0,0,593.0915,1.0,1013.0,-589.0,1,0
330,593.8495,-54396.8423,-53802.9928,54397.6093,594.6165,0.3001,594.9166,0.3668,-275,0.45,275,0.4735,0;0.5;0,1,594.5254,1.0,977.0,-613.0,1,1
331,595.2834,-54398.2762,-53802.9928,54398.9432,595.9504,0.3001,596.2505,0.3668,275,0.2,-275,0.2235,1;0;0,0,595.8593,1.0,1026.0,-553.0,1,0
332,596.6173,-54399.6101,-53802.9928,54400.5271,597.5343,0.3001,597.8345,0.3668,-275,0.05,275,0.0735,1;0;0,1,597.4431,0.0,-959.0,-541.0,1,0
333,598.2013,-54401.1941,-53802.9928,54404.5954,601.6027,0.3001,601.9028,0.3668,275,0.05,-275,0.1171,1;0;0,0,601.5115,1.0,1011.0,-610.0,1,0
334,602.2696,-54405.2624,-53802.9928,54405.9960,603.0032,0.3001,603.3034,0.3668,275,0.05,-275,0.6,0;0.5;0,0,602.9037,0.0,-1014.0,-483.0,1,1
335,603.6702,-54406.6630,-53802.9928,54407.2965,604.3038,0.3001,604.6039,0.3668,-275,0.2,275,0.2235,0;0.5;0,1,604.2127,1.0,1056.0,-541.0,1,1
336,604.9707,-54407.9635,-53802.9928,54408.4303,605.4375,0.3001,605.7377,0.3668,275,0.2,-275,0.2082,1;0;0,0,605.3464,1.0,1029.0,-575.0,1,0
337,606.1045,-54409.0973,-53802.9928,54409.5475,606.5547,0.3001,606.8548,0.3668,-275,0,275,0.0029,0;0.5;0,1,606.4636,1.0,1024.0,-585.0,1,1
338,607.2216,-54410.2144,-53802.9928,54410.3478,607.3550,0.3001,607.6551,0.3668,-275,0.0167,275,0.0402,0;0.5;0,1,607.2556,1.0,1048.0,-575.0,1,1
339,608.0219,-54411.0147,-53802.9928,54412.9488,609.9560,0.3001,610.2562,0.0000,275,0.0088,-275,0.0323,1;0;0,0,609.8650,1.0,994.0,-631.0,1,0
340,610.2562,-54413.2490,-53802.9928,54413.6658,610.6730,0.3001,610.9731,0.3668,-275,0,275,0.0029,1;0;0,1,610.5819,0.0,-946.0,-567.0,1,0
341,611.3399,-54414.3327,-53802.9928,54415.7833,612.7905,0.3001,613.0906,0.3668,-275,0,275,0.0082,0;0.5;0,1,612.6911,1.0,966.0,-666.0,1,1
342,613.4575,-54416.4502,-53802.9928,54417.1172,614.1244,0.3001,614.4245,0.3668,-275,0.0088,275,0.2009,0;0.5;0,1,614.0250,1.0,1010.0,-609.0,1,1
343,614.7913,-54417.7841,-53802.9928,54418.2677,615.2749,0.3001,615.5750,0.3668,275,0,-275,0.0671,0;0.5;0,0,615.1754,0.0,-970.0,-530.0,1,1
344,615.9418,-54418.9346,-53802.9928,54419.4181,616.4253,0.3001,616.7255,0.3668,-275,0.45,275,0.4582,0;0.5;0,1,616.3259,1.0,1033.0,-561.0,1,1
345,617.0923,-54420.0851,-53802.9928,54420.9854,617.9926,0.3001,618.2928,0.3668,-275,0.45,275,0.4582,0;0.5;0,1,617.8932,1.0,965.0,-629.0,1,1
346,618.6596,-54421.6524,-53802.9928,54424.0533,621.0605,0.3001,621.3607,0.3668,275,0,-275,0.0235,1;0;0,0,620.9696,1.0,1063.0,-552.0,1,0
347,621.7275,-54424.7203,-53802.9928,54425.3872,622.3944,0.3001,622.6945,0.3668,275,0.45,-275,0.6421,0;0.5;0,0,622.3033,0.0,-996.0,-503.0,1,1
348,623.0614,-54426.0541,-53802.9928,54430.3559,627.3631,0.3001,627.6632,0.3668,275,0.2,-275,1,1;0;0,0,627.2637,1.0,1019.0,-608.0,1,0
349,628.0300,-54431.0228,-53802.9928,54431.6064,628.6136,0.3001,628.9137,0.3668,275,0.05,-275,0.6,0;0.5;0,0,628.5143,0.0,-982.0,-536.0,1,1
350,629.2805,-54432.2733,-53802.9928,54434.0574,631.0646,0.3001,631.3647,0.3668,-275,0.0088,275,0.017,0;0.5;0,1,630.9651,1.0,1020.0,-587.0,1,1
351,631.7315,-54434.7243,-53802.9928,54435.3412,632.3484,0.3001,632.6486,0.3668,-275,0.45,275,0.5171,0;0.5;0,1,632.2490,1.0,1009.0,-628.0,1,1
352,633.0154,-54436.0082,-53802.9928,54436.7251,633.7323,0.3001,634.0325,0.3668,-275,0.0088,275,0.0759,0;0.5;0,1,633.6413,1.0,1018.0,-618.0,1,1
353,634.3993,-54437.3921,-53802.9928,54438.2257,635.2329,0.3001,635.5331,0.3668,275,0.45,-275,0.5171,0;0.5;0,0,635.1334,0.0,-1042.0,-527.0,1,1
354,635.8999,-54438.8927,-53802.9928,54439.7764,636.7836,0.3001,637.0837,0.3668,-275,0.0167,275,0.0196,0;0.5;0,1,636.6925,1.0,1009.0,-609.0,1,1
355,637.4505,-54440.4433,-53802.9928,54440.9435,637.9507,0.3001,638.2508,0.3668,275,0.05,-275,0.6,0;0.5;0,0,637.8514,0.0,-990.0,-539.0,1,1
356,638.6177,-54441.6104,-53802.9928,54443.7780,640.7852,0.3001,641.0853,0.3668,275,0.0088,-275,0.0323,0;0.5;0,0,640.6941,0.0,-1011.0,-517.0,1,1
357,641.4521,-54444.4449,-53802.9928,54445.4453,642.4525,0.3001,642.7527,0.3668,-275,0.0167,275,0.0196,0;0.5;0,1,642.3615,1.0,1019.0,-606.0,1,1
358,643.1195,-54446.1123,-53802.9928,54446.7292,643.7364,0.3001,644.0365,0.3668,275,0,-275,0.1921,0;0.5;0,0,643.6453,0.0,-975.0,-550.0,1,1
359,644.4033,-54447.3961,-53802.9928,54448.4465,645.4538,0.3001,645.7539,0.3668,-275,0.0167,275,0.0249,1;0;0,1,645.3627,0.0,-987.0,-507.0,1,0
360,646.1207,-54449.1135,-53802.9928,54449.9805,646.9877,0.3001,647.2878,0.3668,-275,0.0167,275,0.0402,0;0.5;0,1,646.8967,1.0,1006.0,-609.0,1,1
361,647.6546,-54450.6474,-53802.9928,54451.3477,648.3549,0.3001,648.6551,0.3668,-275,0.05,275,0.0735,0;0.5;0,1,648.2638,1.0,1010.0,-603.0,1,1
362,649.0219,-54452.0147,-53802.9928,54452.5815,649.5888,0.3001,649.8889,0.3668,275,0.2,-275,0.3921,0;0.5;0,0,649.4893,0.0,-964.0,-560.0,1,1
363,650.2557,-54453.2485,-53802.9928,54454.3656,651.3728,0.3001,651.6729,0.3668,-275,0.0088,275,0.0117,0;0.5;0,1,651.2734,1.0,985.0,-630.0,1,1
364,652.0398,-54455.0325,-53802.9928,54455.6328,652.6400,0.3001,652.9401,0.3668,-275,0.45,275,0.5171,1;0;0,1,652.5407,0.0,-946.0,-586.0,1,0
365,653.3069,-54456.2997,-53802.9928,54459.0175,656.0247,0.3001,656.3248,0.3668,275,0,-275,0.0029,1;0;0,0,655.9335,1.0,1036.0,-595.0,1,0
366,656.6916,-54459.6844,-53802.9928,54460.1721,657.1793,0.2960,657.4753,0.3668,-275,0.45,275,1,0;0.5;0,1,657.0841,1.0,1057.0,-575.0,1,1
367,657.8421,-54460.8349,-53802.9928,54461.6852,658.6924,0.3001,658.9926,0.3668,-275,0.0167,275,0.0177,0;0.5;0,1,658.5930,1.0,1010.0,-611.0,1,1
368,659.3594,-54462.3522,-53802.9928,54462.9191,659.9263,0.3001,660.2264,0.3668,275,0.0088,-275,0.2009,1;0;0,0,659.8353,1.0,985.0,-624.0,1,0
369,660.5932,-54463.5860,-53802.9928,54464.6364,661.6436,0.3001,661.9438,0.3668,275,0.45,-275,1,1;0;0,0,661.5526,1.0,1002.0,-614.0,1,0
370,662.3106,-54465.3034,-53802.9928,54465.4034,662.4106,0.3001,662.7107,0.3668,-275,0.05,275,0.0582,0;0.5;0,1,662.3113,1.0,980.0,-630.0,1,1
371,663.0776,-54466.0703,-53802.9928,54468.0712,665.0784,0.3001,665.3785,0.3668,-275,0.05,275,0.0529,0;0.5;0,1,664.9873,1.0,1011.0,-609.0,1,1
372,665.7453,-54468.7381,-53802.9928,54469.7218,666.7290,0.3001,667.0292,0.3668,-275,0,275,0.1921,0;0.5;0,1,666.6296,1.0,1038.0,-583.0,1,1
373,667.3960,-54470.3888,-53802.9928,54471.1724,668.1796,0.3001,668.4797,0.3668,-275,0,275,0.0235,0;0.5;0,1,668.0885,1.0,1015.0,-598.0,1,1
374,668.8466,-54471.8393,-53802.9928,54472.6897,669.6969,0.3001,669.9970,0.3668,275,0.05,-275,0.0582,1;0;0,0,669.5975,1.0,1024.0,-590.0,1,0
375,670.3638,-54473.3566,-53802.9928,54474.3904,671.3976,0.3001,671.6977,0.3668,275,0.0088,-275,0.2009,0;0.5;0,0,671.2982,0.0,-965.0,-582.0,1,1
376,672.0645,-54475.0573,-53802.9928,54475.5909,672.5981,0.3001,672.8982,0.3668,275,0,-275,0.0671,1;0;0,0,672.5070,1.0,1037.0,-599.0,1,0
377,673.2650,-54476.2578,-53802.9928,54476.5246,673.5318,0.3001,673.8319,0.3668,-275,0.0088,275,0.0098,1;0;0,1,673.4324,0.0,-956.0,-570.0,1,0
378,674.1987,-54477.1915,-53802.9928,54477.3749,674.3821,0.3001,674.6823,0.3668,-275,0.45,275,0.5171,0;0.5;0,1,674.2827,1.0,1041.0,-597.0,1,1
379,675.0491,-54478.0419,-53802.9928,54479.0089,676.0161,0.3001,676.3163,0.3668,275,0.0167,-275,0.0838,1;0;0,0,675.9249,1.0,1002.0,-621.0,1,0
380,676.6831,-54479.6759,-53802.9928,54481.9434,678.9507,0.3001,679.2508,0.3668,-275,0.2,275,1,0;0.5;0,1,678.8512,1.0,1016.0,-597.0,1,1
381,679.6176,-54482.6104,-53802.9928,54483.2106,680.2178,0.3001,680.5180,0.3668,-275,0.05,275,0.0529,0;0.5;0,1,680.1268,1.0,1031.0,-593.0,1,1
382,680.8848,-54483.8776,-53802.9928,54484.1110,681.1182,0.3001,681.4183,0.3668,275,0.2,-275,0.2235,1;0;0,0,681.0272,1.0,985.0,-629.0,1,0
383,681.7851,-54484.7779,-53802.9928,54485.2948,682.3020,0.3001,682.6021,0.3668,275,0.05,-275,0.2421,0;0.5;0,0,682.2110,0.0,-975.0,-559.0,1,1
384,682.9689,-54485.9617,-53802.9928,54486.5286,683.5358,0.3001,683.8360,0.3668,-275,0.45,275,1,0;0.5;0,1,683.4448,1.0,1022.0,-599.0,1,1
385,684.2028,-54487.1956,-53802.9928,54488.1126,685.1198,0.3001,685.4199,0.3668,275,0.0167,-275,0.0402,1;0;0,0,685.0288,1.0,1024.0,-588.0,1,0
386,685.7868,-54488.7795,-53802.9928,54488.9963,686.0035,0.3001,686.3036,0.3668,275,0,-275,0.0235,0;0.5;0,0,685.9041,0.0,-1054.0,-502.0,1,1
387,686.6704,-54489.6632,-53802.9928,54491.2806,688.2878,0.3001,688.5879,0.3668,275,0,-275,0.0671,1;0;0,0,688.1968,1.0,984.0,-644.0,1,0
388,688.9547,-54491.9475,-53802.9928,54492.1976,689.2048,0.3001,689.5049,0.3668,275,0.0167,-275,0.0249,0;0.5;0,0,689.1054,0.0,-969.0,-584.0,1,1
389,689.8717,-54492.8645,-53802.9928,54493.4814,690.4887,0.3001,690.7888,0.3668,-275,0.0088,275,0.0117,0;0.5;0,1,690.3893,1.0,1047.0,-599.0,1,1
390,691.1556,-54494.1484,-53802.9928,54494.6653,691.6725,0.3001,691.9726,0.3668,275,0.05,-275,0.0582,1;0;0,0,691.5731,1.0,1047.0,-594.0,1,0
391,692.3394,-54495.3322,-53802.9928,54504.0190,701.0263,0.3001,701.3264,0.3668,-275,0.0088,275,0.0323,0;0.5;0,1,700.9268,1.0,1043.0,-613.0,1,1
392,701.6932,-54504.6860,-53802.9928,54504.8194,701.8266,0.3001,702.1267,0.3668,275,0.0088,-275,0.0117,1;0;0,0,701.7272,1.0,1034.0,-602.0,1,0
393,702.4935,-54505.4863,-53802.9928,54506.1199,703.1271,0.3001,703.4272,0.3668,275,0.2,-275,0.2671,1;0;0,0,703.0277,1.0,1019.0,-620.0,1,0
394,703.7940,-54506.7868,-53802.9928,54507.5371,704.5443,0.3001,704.8445,0.3668,-275,0.0167,275,0.0249,0;0.5;0,1,704.4449,1.0,1065.0,-599.0,1,1
395,705.2113,-54508.2041,-53802.9928,54508.6543,705.6615,0.3001,705.9616,0.3668,275,0.45,-275,0.6421,1;0;0,0,705.5703,1.0,1081.0,-580.0,1,0
396,706.3284,-54509.3212,-53802.9928,54512.0056,709.0128,0.3001,709.3129,0.3668,-275,0.45,275,0.5171,0;0.5;0,1,708.9217,1.0,995.0,-652.0,1,1
397,709.6798,-54512.6725,-53802.9928,54515.5070,712.5142,0.3001,712.8144,0.3668,-275,0.0167,275,0.0196,0;0.5;0,1,712.4231,1.0,1028.0,-600.0,1,1
398,713.1812,-54516.1740,-53802.9928,54520.2256,717.2328,0.3001,717.5329,0.3668,-275,0.2,275,0.2671,0;0.5;0,1,717.1334,1.0,1051.0,-604.0,1,1
399,717.8998,-54520.8925,-53802.9928,54522.6099,719.6171,0.3001,719.9172,0.3668,275,0,-275,0.1921,1;0;0,0,719.5260,1.0,980.0,-694.0,1,0
400,720.2841,-54523.2768,-53802.9928,54528.3956,725.4028,0.3001,725.7029,0.3668,-275,0.05,275,0.6,0;0.5;0,1,725.3034,1.0,1072.0,-589.0,1,1
401,726.0697,-54529.0625,-53802.9928,54529.8628,726.8700,0.3001,727.1702,0.3668,275,0.45,-275,0.4582,1;0;0,0,726.7791,1.0,1008.0,-642.0,1,0
402,727.5370,-54530.5298,-53802.9928,54532.8807,729.8879,0.3001,730.1881,0.3668,275,0.0167,-275,0.0177,1;0;0,0,729.7969,1.0,1009.0,-674.0,1,0
403,730.5549,-54533.5477,-53802.9928,54534.1479,731.1551,0.3001,731.4552,0.3668,275,0.2,-275,0.2082,1;0;0,0,731.0555,1.0,1125.0,-589.0,1,0
404,731.8221,-54534.8148,-53802.9928,54535.5485,732.5557,0.3001,732.8558,0.3668,275,0.2,-275,0.2082,1;0;0,0,732.4646,1.0,1021.0,-594.0,1,0
405,733.2226,-54536.2154,-53802.9928,54537.7327,734.7399,0.3001,735.0400,0.3710,275,0.05,-275,0.2421,1;0;0,0,734.6490,1.0,1038.0,-603.0,1,0
406,735.4110,-54538.4038,-53802.9928,54539.1666,736.1738,0.3001,736.4739,0.3668,275,0.2,-275,0.75,0;0.5;0,0,736.0744,0.0,-978.0,-718.0,1,1
407,736.8408,-54539.8335,-53802.9928,54541.7010,738.7082,0.3001,739.0083,0.3668,275,0.0167,-275,0.0249,1;0;0,0,738.6171,1.0,1009.0,-589.0,1,0
408,739.3751,-54542.3679,-53802.9928,54544.4187,741.4259,0.3001,741.7261,0.3668,275,0.45,-275,1,1;0;0,0,741.3348,1.0,958.0,-630.0,1,0
409,742.0929,-54545.0857,-53802.9928,54545.6859,742.6931,0.3001,742.9932,0.3668,275,0.0088,-275,0.2009,0;0.5;0,0,742.5604,0.0,-1122.0,-651.0,1,1
410,743.3601,-54546.3528,-53802.9928,54547.5200,744.5272,0.3001,744.8273,0.3668,275,0.2,-275,0.2235,1;0;0,0,744.4277,1.0,1004.0,-560.0,1,0
411,745.1941,-54548.1869,-53802.9928,54552.1218,749.1291,0.3001,749.4292,0.3668,-275,0.0088,275,0.017,0;0.5;0,1,749.0296,1.0,1032.0,-614.0,1,1
412,749.7960,-54552.7888,-53802.9928,54553.4557,750.4629,0.3001,750.7631,0.3668,275,0.05,-275,0.2421,0;0.5;0,0,750.3635,0.0,-1118.0,-629.0,1,1
413,751.1299,-54554.1227,-53802.9928,54555.3732,752.3804,0.3001,752.6805,0.3668,-275,0.05,275,0.0529,1;0;0,1,752.1727,0.0,-1140.0,-632.0,1,0
414,753.0473,-54556.0401,-53802.9928,54557.1072,754.1144,0.3001,754.4145,0.3668,-275,0,275,0.001,0;0.5;0,1,754.0151,1.0,1027.0,-597.0,1,1
415,754.7813,-54557.7741,-53802.9928,54558.5911,755.5983,0.3001,755.8985,0.3668,275,0.2,-275,1,0;0.5;0,0,755.3823,0.0,-1123.0,-640.0,1,1
416,756.2653,-54559.2581,-53802.9928,54561.1422,758.1494,0.3001,758.4495,0.3668,-275,0.0088,275,0.0098,0;0.5;0,1,758.0499,1.0,1004.0,-652.0,1,1
417,758.8163,-54561.8091,-53802.9928,54562.5927,759.6000,0.3001,759.9001,0.3668,-275,0.0167,275,0.2088,0;0.5;0,1,759.5005,1.0,1014.0,-630.0,1,1
418,760.2669,-54563.2597,-53802.9928,54564.0433,761.0505,0.3001,761.3507,0.3668,275,0.2,-275,0.3921,0;0.5;0,0,760.8427,0.0,-1127.0,-663.0,1,1
419,761.7175,-54564.7103,-53802.9928,54567.0612,764.0684,0.3001,764.3686,0.3668,-275,0.0167,275,0.0402,0;0.5;0,1,763.9690,1.0,1004.0,-631.0,1,1
420,764.7354,-54567.7282,-53802.9928,54570.2125,767.2197,0.3001,767.5198,0.3668,275,0,-275,0.0082,1;0;0,0,767.1204,1.0,1003.0,-631.0,1,0
421,767.8866,-54570.8794,-53802.9928,54572.0466,769.0538,0.3001,769.3539,0.3668,-275,0.0088,275,0.0117,0;0.5;0,1,768.9544,1.0,1047.0,-577.0,1,1
422,769.7207,-54572.7135,-53802.9928,54573.5472,770.5544,0.3001,770.8545,0.3668,-275,0.0088,275,0.017,1;0;0,1,770.4634,0.0,-1064.0,-634.0,1,0
423,771.2213,-54574.2141,-53802.9928,54574.5976,771.6048,0.3001,771.9049,0.3668,275,0.2,-275,0.3921,1;0;0,0,771.5138,1.0,1004.0,-609.0,1,0
424,772.2718,-54575.2645,-53802.9928,54575.3813,772.3885,0.3001,772.6886,0.3668,275,0,-275,0.1921,1;0;0,0,772.2974,1.0,1014.0,-603.0,1,0
425,773.0554,-54576.0482,-53802.9928,54576.6151,773.6223,0.3001,773.9224,0.3668,275,0.0088,-275,0.0098,0;0.5;0,0,773.5228,0.0,-1110.0,-606.0,1,1
426,774.2892,-54577.2820,-53802.9928,54578.3491,775.3563,0.3001,775.6565,0.3668,-275,0.05,275,0.0735,0;0.5;0,1,775.2652,1.0,1014.0,-613.0,1,1
427,776.0233,-54579.0161,-53802.9928,54579.7163,776.7236,0.3001,777.0237,0.3668,275,0.45,-275,0.6421,0;0.5;0,0,776.6243,0.0,-1094.0,-614.0,1,1
428,777.3905,-54580.3833,-53802.9928,54581.0002,778.0074,0.3001,778.3075,0.3668,-275,0,275,0.0235,0;0.5;0,1,777.9163,1.0,1036.0,-607.0,1,1
429,778.6743,-54581.6671,-53802.9928,54582.4341,779.4413,0.3001,779.7414,0.3668,275,0.0088,-275,0.017,0;0.5;0,0,779.3503,0.0,-1109.0,-630.0,1,1
430,780.1083,-54583.1010,-53802.9928,54583.6346,780.6418,0.3001,780.9419,0.3668,-275,0.0088,275,0.0323,0;0.5;0,1,780.5424,1.0,1037.0,-578.0,1,1
431,781.3087,-54584.3015,-53802.9928,54585.0018,782.0090,0.3001,782.3091,0.3668,-275,0.05,275,0.2421,0;0.5;0,1,781.9097,1.0,1049.0,-555.0,1,1
432,782.6760,-54585.6688,-53802.9928,54586.5191,783.5263,0.3001,783.8264,0.3668,275,0.05,-275,0.0735,0;0.5;0,0,783.4268,0.0,-1107.0,-660.0,1,1
433,784.1932,-54587.1860,-53802.9928,54588.9201,785.9273,0.3001,786.2274,0.3668,-275,0,275,0.0029,0;0.5;0,1,785.8362,1.0,1033.0,-584.0,1,1
434,786.5942,-54589.5870,-53802.9928,54590.5707,787.5779,0.3001,787.8781,0.3668,275,0.0167,-275,0.0196,1;0;0,0,787.4785,1.0,1027.0,-591.0,1,0
435,788.2449,-54591.2377,-53802.9928,54593.0384,790.0456,0.3001,790.3457,0.3668,-275,0,275,0.0235,1;0;0,1,789.8795,0.0,-1171.0,-611.0,1,0
436,790.7125,-54593.7053,-53802.9928,54593.8387,790.8459,0.3001,791.1461,0.3668,-275,0.2,275,0.2082,0;0.5;0,1,790.7550,1.0,1030.0,-610.0,1,1
437,791.5129,-54594.5057,-53802.9928,54597.0900,794.0973,0.3001,794.3974,0.3668,-275,0.0167,275,0.0249,0;0.5;0,1,793.9978,1.0,1056.0,-576.0,1,1
438,794.7642,-54597.7570,-53802.9928,54598.5740,795.5812,0.3001,795.8813,0.3668,-275,0.2,275,0.3921,0;0.5;0,1,795.4818,1.0,1050.0,-564.0,1,1
439,796.2481,-54599.2409,-53802.9928,54600.1746,797.1818,0.3001,797.4820,0.3668,-275,0.0088,275,0.017,0;0.5;0,1,797.0824,1.0,1032.0,-580.0,1,1
440,797.8488,-54600.8416,-53802.9928,54601.4918,798.4990,0.3001,798.7992,0.3668,275,0.0088,-275,0.0759,0;0.5;0,0,798.4079,0.0,-1064.0,-622.0,1,1
441,799.1660,-54602.1588,-53802.9928,54603.3759,800.3831,0.3001,800.6832,0.3668,275,0.0167,-275,0.0196,0;0.5;0,0,800.2920,0.0,-1106.0,-608.0,1,1
442,801.0501,-54604.0428,-53802.9928,54605.3600,802.3673,0.3001,802.6674,0.3668,-275,0.0167,275,0.0177,1;0;0,1,802.2762,0.0,-1107.0,-656.0,1,0
443,803.0342,-54606.0270,-53802.9928,54606.7773,803.7845,0.3001,804.0846,0.3668,-275,0.0167,275,0.0177,0;0.5;0,1,803.6851,1.0,1042.0,-563.0,1,1
444,804.4514,-54607.4442,-53802.9928,54607.9111,804.9183,0.3001,805.2184,0.3668,-275,0,275,0.001,0;0.5;0,1,804.8188,1.0,1014.0,-624.0,1,1
445,805.5852,-54608.5780,-53802.9928,54609.3283,806.3355,0.3001,806.6357,0.3668,-275,0.0167,275,0.0196,0;0.5;0,1,806.2360,1.0,1048.0,-581.0,1,1
446,807.0025,-54609.9953,-53802.9928,54610.6288,807.6361,0.3001,807.9362,0.3668,275,0,-275,0.0235,0;0.5;0,0,807.5366,0.0,-1061.0,-643.0,1,1
447,808.3030,-54611.2958,-53802.9928,54612.1795,809.1867,0.3001,809.4868,0.3668,275,0.0088,-275,0.0323,0;0.5;0,0,808.9790,0.0,-1127.0,-636.0,1,1
448,809.8536,-54612.8464,-53802.9928,54613.7301,810.7373,0.3001,811.0374,0.3668,275,0.0167,-275,0.0177,0;0.5;0,0,810.6129,0.0,-1139.0,-633.0,1,1
449,811.4043,-54614.3970,-53802.9928,54615.1640,812.1712,0.3001,812.4713,0.3668,-275,0.45,275,0.5171,0;0.5;0,1,812.0802,1.0,1078.0,-539.0,1,1
450,812.8382,-54615.8310,-53802.9928,54616.5479,813.5551,0.3001,813.8552,0.3668,275,0.0088,-275,0.0117,0;0.5;0,0,813.4557,0.0,-1104.0,-596.0,1,1
451,814.2221,-54617.2148,-53802.9928,54617.8985,814.9057,0.3001,815.2058,0.3668,275,0.45,-275,0.4582,1;0;0,0,814.8145,1.0,1064.0,-532.0,1,0
452,815.5726,-54618.5654,-53802.9928,54621.1831,818.1903,0.3001,818.4905,0.3668,275,0,-275,0.001,1;0;0,0,818.0909,1.0,1044.0,-596.0,1,0
453,818.8573,-54621.8501,-53802.9928,54622.5170,819.5242,0.3001,819.8243,0.3668,275,0,-275,0.0082,1;0;0,0,819.4333,1.0,1071.0,-560.0,1,0
454,820.1911,-54623.1839,-53802.9928,54623.7175,820.7247,0.3001,821.0248,0.3668,-275,0.2,275,1,0;0.5;0,1,820.6337,1.0,1095.0,-521.0,1,1
455,821.3916,-54624.3844,-53802.9928,54625.0180,822.0252,0.3001,822.3253,0.3668,275,0.0088,-275,0.017,1;0;0,0,821.9258,1.0,1097.0,-518.0,1,0
456,822.6921,-54625.6849,-53802.9928,54628.1026,825.1098,0.3001,825.4099,0.3668,-275,0,275,0.0671,0;0.5;0,1,825.0188,1.0,1023.0,-593.0,1,1
457,825.7767,-54628.7695,-53802.9928,54629.6365,826.6437,0.3001,826.9439,0.3668,275,0.0088,-275,0.017,1;0;0,0,826.5444,1.0,1015.0,-615.0,1,0
458,827.3107,-54630.3035,-53802.9928,54631.4706,828.4778,0.3001,828.7779,0.3668,275,0.0167,-275,0.0196,1;0;0,0,828.3784,1.0,1007.0,-634.0,1,0
459,829.1448,-54632.1375,-53802.9928,54632.4377,829.4449,0.3001,829.7450,0.0000,-275,0.0088,275,0.0117,0;0.5;0,1,829.3454,1.0,997.0,-646.0,1,1
460,829.7450,-54632.7378,-53802.9928,54633.1546,830.1618,0.3001,830.4620,0.3668,275,0.2,-275,0.2235,1;0;0,0,830.0707,1.0,1023.0,-609.0,1,0
461,830.8288,-54633.8216,-53802.9928,54634.0216,831.0289,0.3001,831.3290,0.3668,275,0.2,-275,1,1;0;0,0,830.9295,1.0,1073.0,-556.0,1,0
462,831.6958,-54634.6886,-53802.9928,54635.9057,832.9129,0.3001,833.2131,0.3668,275,0.0167,-275,0.0196,1;0;0,0,832.8220,1.0,1066.0,-566.0,1,0
463,833.5799,-54636.5727,-53802.9928,54637.2063,834.2135,0.3001,834.5136,0.3668,-275,0.0088,275,0.0323,0;0.5;0,1,834.1223,1.0,1030.0,-600.0,1,1
464,834.8804,-54637.8732,-53802.9928,54638.7569,835.7641,0.3001,836.0642,0.3668,-275,0.0167,275,0.0196,0;0.5;0,1,835.6648,1.0,1079.0,-535.0,1,1
465,836.4310,-54639.4238,-53802.9928,54640.1741,837.1813,0.3001,837.4815,0.3668,-275,0.2,275,0.2235,0;0.5;0,1,837.0819,1.0,1047.0,-566.0,1,1
466,837.8483,-54640.8411,-53802.9928,54641.5413,838.5486,0.3001,838.8487,0.3668,275,0.05,-275,0.2421,0;0.5;0,0,838.4575,0.0,-1121.0,-612.0,1,1
467,839.2155,-54642.2083,-53802.9928,54643.0253,840.0325,0.3001,840.3326,0.3668,275,0.0167,-275,0.2088,0;0.5;0,0,839.9415,0.0,-1109.0,-628.0,1,1
468,840.6994,-54643.6922,-53802.9928,54645.0094,842.0166,0.3001,842.3168,0.3668,275,0,-275,0.001,1;0;0,0,841.9172,1.0,1015.0,-618.0,1,0
469,842.6836,-54645.6764,-53802.9928,54646.1932,843.2004,0.3001,843.5006,0.3668,-275,0.0088,275,0.2009,0;0.5;0,1,843.1094,1.0,1062.0,-565.0,1,1
470,843.8674,-54646.8602,-53802.9928,54647.6438,844.6510,0.3001,844.9512,0.3668,275,0.45,-275,0.6421,0;0.5;0,0,844.5516,0.0,-1109.0,-622.0,1,1
471,845.3180,-54648.3108,-53802.9928,54648.8776,845.8849,0.3001,846.1850,0.3668,-275,0.2,275,0.2671,0;0.5;0,1,845.7938,1.0,1021.0,-628.0,1,1
472,846.5518,-54649.5446,-53802.9928,54651.9789,848.9861,0.3001,849.2862,0.3668,-275,0,275,0.1921,0;0.5;0,1,848.8950,1.0,1022.0,-603.0,1,1
473,849.6531,-54652.6458,-53802.9928,54653.4128,850.4200,0.3001,850.7201,0.3668,-275,0.0088,275,0.2009,0;0.5;0,1,850.3206,1.0,1047.0,-591.0,1,1
474,851.0870,-54654.0798,-53802.9928,54654.7300,851.7372,0.3001,852.0373,0.3668,275,0,-275,0.0671,0;0.5;0,0,851.6379,0.0,-1099.0,-653.0,1,1
475,852.4042,-54655.3970,-53802.9928,54656.6975,853.7047,0.3001,854.0048,0.3668,275,0.0167,-275,0.0249,1;0;0,0,853.6054,1.0,1060.0,-564.0,1,0
476,854.3716,-54657.3644,-53802.9928,54657.7979,854.8051,0.3001,855.1053,0.3668,-275,0.2,275,1,0;0.5;0,1,854.7141,1.0,1036.0,-594.0,1,1
477,855.4721,-54658.4649,-53802.9928,54659.3652,856.3724,0.3001,856.6726,0.3668,-275,0.0167,275,0.2088,0;0.5;0,1,856.2815,1.0,1044.0,-590.0,1,1
478,857.0394,-54660.0322,-53802.9928,54662.8833,859.8905,0.3001,860.1906,0.3668,-275,0.0088,275,0.2009,0;0.5;0,1,859.7995,1.0,1048.0,-599.0,1,1
479,860.5575,-54663.5502,-53802.9928,54664.5173,861.5245,0.3001,861.8246,0.3668,275,0.2,-275,0.3921,1;0;0,0,861.4337,1.0,1004.0,-642.0,1,0
480,862.1915,-54665.1842,-53802.9928,54666.0012,863.0085,0.3001,863.3086,0.3668,-275,0.0167,275,0.2088,0;0.5;0,1,862.9174,1.0,1038.0,-594.0,1,1
481,863.6754,-54666.6682,-53802.9928,54667.3518,864.3590,0.3001,864.6591,0.3668,-275,0.0088,275,0.0759,0;0.5;0,1,864.2596,1.0,1076.0,-531.0,1,1
482,865.0259,-54668.0187,-53802.9928,54669.5193,866.5265,0.3001,866.8267,0.3710,-275,0.2,275,0.2235,0;0.5;0,1,866.4355,1.0,1036.0,-570.0,1,1
483,867.1976,-54670.1904,-53802.9928,54670.8699,867.8771,0.3001,868.1772,0.3668,275,0,-275,0.0082,0;0.5;0,0,867.7777,0.0,-1112.0,-583.0,1,1
484,868.5440,-54671.5368,-53802.9928,54672.5372,869.5444,0.3001,869.8445,0.3668,275,0.2,-275,0.75,0;0.5;0,0,869.3201,0.0,-1129.0,-561.0,1,1
485,870.2114,-54673.2042,-53802.9928,54673.6210,870.6282,0.3001,870.9283,0.3668,-275,0,275,0.1921,0;0.5;0,1,870.5371,1.0,1060.0,-542.0,1,1
486,871.2951,-54674.2879,-53802.9928,54674.8548,871.8620,0.3001,872.1622,0.3668,-275,0.0088,275,0.2009,0;0.5;0,1,871.7626,1.0,1052.0,-565.0,1,1
487,872.5290,-54675.5218,-53802.9928,54676.1387,873.1459,0.3001,873.4460,0.3668,275,0,-275,0.0235,0;0.5;0,0,873.0549,0.0,-1121.0,-618.0,1,1
488,873.8128,-54676.8056,-53802.9928,54678.0728,875.0800,0.3001,875.3801,0.3668,275,0,-275,0.0029,1;0;0,0,874.9890,1.0,1036.0,-580.0,1,0
489,875.7469,-54678.7397,-53802.9928,54682.9748,879.9820,0.3001,880.2821,0.3668,275,0.0088,-275,0.0098,1;0;0,0,879.8910,1.0,1052.0,-588.0,1,0
490,880.6489,-54683.6417,-53802.9928,54684.3587,881.3659,0.3001,881.6660,0.3668,275,0.45,-275,1,0;0.5;0,0,881.2748,0.0,-1089.0,-647.0,1,1
491,882.0328,-54685.0256,-53802.9928,54685.9093,882.9165,0.3001,883.2166,0.3668,275,0.0167,-275,0.0402,0;0.5;0,0,882.7004,0.0,-1173.0,-559.0,1,1
492,883.5834,-54686.5762,-53802.9928,54691.0614,888.0686,0.3001,888.3687,0.3668,275,0.05,-275,0.0735,0;0.5;0,0,887.9691,0.0,-985.0,-639.0,1,1
493,888.7355,-54691.7283,-53802.9928,54693.2623,890.2695,0.3001,890.5696,0.3668,-275,0.0167,275,0.0838,0;0.5;0,1,890.1785,1.0,1017.0,-584.0,1,1
494,890.9364,-54693.9292,-53802.9928,54695.3798,892.3870,0.3001,892.6871,0.3668,275,0.0088,-275,0.0323,0;0.5;0,0,892.2875,0.0,-1018.0,-599.0,1,1
495,893.0539,-54696.0467,-53802.9928,54698.2476,895.2548,0.3001,895.5549,0.3668,-275,0,275,0.0235,0;0.5;0,1,895.1639,1.0,1004.0,-632.0,1,1
496,895.9218,-54698.9145,-53802.9928,54699.8149,896.8221,0.3001,897.1222,0.3668,275,0.45,-275,1,0;0.5;0,0,896.7227,0.0,-1028.0,-568.0,1,1
497,897.4891,-54700.4818,-53802.9928,54701.4156,898.4228,0.3001,898.7229,0.3668,275,0,-275,0.1921,0;0.5;0,0,898.3317,0.0,-996.0,-599.0,1,1
498,899.0897,-54702.0825,-53802.9928,54702.9995,900.0067,0.3001,900.3069,0.3668,275,0,-275,0.0235,0;0.5;0,0,899.9074,0.0,-986.0,-579.0,1,1
499,900.6737,-54703.6665,-53802.9928,54704.2667,901.2739,0.3001,901.5740,0.3668,-275,0.2,275,0.75,0;0.5;0,1,901.1827,1.0,1037.0,-604.0,1,1
500,901.9409,-54704.9336,-53802.9928,54705.6673,902.6745,0.3001,902.9746,0.3668,275,0.2,-275,0.2671,0;0.5;0,0,902.5750,0.0,-1068.0,-661.0,1,1
501,903.3414,-54706.3342,-53802.9928,54707.1679,904.1751,0.3001,904.4752,0.3668,-275,0,275,0.1921,0;0.5;0,1,904.0840,1.0,1037.0,-593.0,1,1
502,904.8420,-54707.8348,-53802.9928,54709.8523,906.8595,0.3001,907.1596,0.3668,-275,0,275,0.0029,1;0;0,1,906.7684,0.0,-1038.0,-625.0,1,0
503,907.5264,-54710.5192,-53802.9928,54711.4029,908.4101,0.3001,908.7103,0.3668,275,0.45,-275,0.5171,1;0;0,0,908.3191,1.0,1029.0,-614.0,1,0
504,909.0771,-54712.0699,-53802.9928,54714.9544,911.9616,0.3001,912.2617,0.3668,-275,0,275,0.0671,1;0;0,1,911.8706,0.0,-840.0,-419.0,1,0
505,912.6285,-54715.6213,-53802.9928,54717.5054,914.5126,0.3001,914.8127,0.3668,275,0.0167,-275,0.0402,0;0.5;0,0,914.4215,0.0,-1037.0,-587.0,1,1
506,915.1795,-54718.1723,-53802.9928,54719.4562,916.4634,0.3001,916.7635,0.3668,-275,0,275,0.1921,0;0.5;0,1,916.3640,1.0,1055.0,-556.0,1,1
507,917.1303,-54720.1231,-53802.9928,54720.7234,917.7306,0.3001,918.0307,0.3668,-275,0.45,275,0.6421,0;0.5;0,1,917.6396,1.0,920.0,-525.0,1,1
508,918.3975,-54721.3903,-53802.9928,54722.5574,919.5646,0.3001,919.8648,0.3668,275,0.0088,-275,0.0759,0;0.5;0,0,919.4651,0.0,-1024.0,-591.0,1,1
509,920.2316,-54723.2244,-53802.9928,54724.4082,921.4154,0.3001,921.7155,0.3668,275,0.0088,-275,0.0098,1;0;0,0,921.3160,1.0,1038.0,-482.0,1,0
510,922.0823,-54725.0751,-53802.9928,54731.6278,928.6350,0.3001,928.9351,0.3668,-275,0.0167,275,0.0402,0;0.5;0,1,928.5440,1.0,777.0,-418.0,1,1
511,929.3019,-54732.2947,-53802.9928,54736.3297,933.3369,0.3001,933.6370,0.3668,-275,0,275,0.0235,0;0.5;0,1,933.2457,1.0,913.0,-542.0,1,1
512,934.0038,-54736.9966,-53802.9928,54744.3662,941.3735,0.3001,941.6736,0.3668,275,0.0088,-275,0.017,0;0.5;0,0,941.2741,0.0,-888.0,-507.0,1,1
513,942.0404,-54745.0332,-53802.9928,54747.3174,944.3247,0.3001,944.6248,0.3668,-275,0.0167,275,0.2088,0;0.5;0,1,944.2252,1.0,932.0,-486.0,1,1
514,944.9916,-54747.9844,-53802.9928,54751.2524,948.2596,0.3001,948.5597,0.3668,275,0.0088,-275,0.0098,1;0;0,0,948.1601,1.0,942.0,-499.0,1,0
515,948.9265,-54751.9193,-53802.9928,54752.7363,949.7435,0.3001,950.0436,0.3668,275,0.0167,-275,0.0402,1;0;0,0,949.6524,1.0,953.0,-507.0,1,0
516,950.4104,-54753.4032,-53802.9928,54754.1535,951.1607,0.3001,951.4609,0.3668,275,0.2,-275,0.75,0;0.5;0,0,951.0614,0.0,-874.0,-527.0,1,1
517,951.8277,-54754.8205,-53802.9928,54755.5541,952.5613,0.3001,952.8614,0.3668,275,0.05,-275,0.1171,0;0.5;0,0,952.4703,0.0,-901.0,-499.0,1,1
518,953.2283,-54756.2210,-53802.9928,54756.7713,953.7785,0.3001,954.0786,0.3668,-275,0.2,275,0.75,0;0.5;0,1,953.6791,1.0,1049.0,-409.0,1,1
519,954.4454,-54757.4382,-53802.9928,54758.7887,955.7960,0.3001,956.0961,0.3668,-275,0.0088,275,0.017,0;0.5;0,1,955.6966,1.0,969.0,-486.0,1,1
520,956.4629,-54759.4557,-53802.9928,54760.2560,957.2632,0.3001,957.5633,0.3668,-275,0.05,275,0.1171,0;0.5;0,1,957.1638,1.0,964.0,-500.0,1,1
521,957.9302,-54760.9229,-53802.9928,54761.4565,958.4637,0.3001,958.7638,0.3668,-275,0.45,275,0.6421,0;0.5;0,1,958.3644,1.0,1008.0,-474.0,1,1
522,959.1306,-54762.1234,-53802.9928,54762.5569,959.5641,0.3001,959.8643,0.3668,-275,0.0167,275,0.2088,0;0.5;0,1,959.4647,1.0,997.0,-456.0,1,1
523,960.2311,-54763.2239,-53802.9928,54763.8408,960.8480,0.3001,961.1481,0.3668,275,0.05,-275,0.6,0;0.5;0,0,960.7568,0.0,-947.0,-495.0,1,1
524,961.5149,-54764.5077,-53802.9928,54765.3080,962.3153,0.3001,962.6154,0.3668,275,0.45,-275,0.4582,1;0;0,0,962.2242,1.0,999.0,-466.0,1,0
525,962.9822,-54765.9750,-53802.9928,54768.5594,965.5666,0.3001,965.8667,0.3668,-275,0,275,0.0671,0;0.5;0,1,965.4755,1.0,956.0,-480.0,1,1
526,966.2335,-54769.2263,-53802.9928,54770.0433,967.0505,0.3001,967.3506,0.3668,-275,0,275,0.0082,0;0.5;0,1,966.9595,1.0,972.0,-469.0,1,1
527,967.7174,-54770.7102,-53802.9928,54771.2771,968.2843,0.3001,968.5845,0.3668,275,0.05,-275,0.6,0;0.5;0,0,968.1932,0.0,-938.0,-536.0,1,1
528,968.9513,-54771.9441,-53802.9928,54774.1616,971.1688,0.3001,971.4690,0.3668,-275,0.0167,275,0.0402,0;0.5;0,1,971.0778,1.0,965.0,-456.0,1,1
529,971.8358,-54774.8286,-53802.9928,54775.3788,972.3860,0.3001,972.6861,0.3668,-275,0.45,275,1,0;0.5;0,1,972.2866,1.0,972.0,-474.0,1,1
530,973.0529,-54776.0457,-53802.9928,54776.4959,973.5031,0.3001,973.8032,0.3668,-275,0.45,275,0.4735,0;0.5;0,1,973.4121,1.0,958.0,-485.0,1,1
531,974.1700,-54777.1628,-53802.9928,54777.7631,974.7703,0.3001,975.0704,0.3668,275,0.05,-275,0.6,0;0.5;0,0,974.6709,0.0,-950.0,-497.0,1,1
532,975.4372,-54778.4300,-53802.9928,54778.8802,975.8874,0.3001,976.1875,0.3668,-275,0.2,275,0.2082,0;0.5;0,1,975.7881,1.0,932.0,-512.0,1,1
533,976.5543,-54779.5471,-53802.9928,54782.7484,979.7556,0.3001,980.0558,0.3668,-275,0.2,275,0.2082,0;0.5;0,1,979.6648,1.0,975.0,-464.0,1,1
534,980.4226,-54783.4154,-53802.9928,54783.9489,980.9561,0.3001,981.2562,0.3668,-275,0.05,275,0.2421,0;0.5;0,1,980.8567,1.0,933.0,-509.0,1,1
535,981.6231,-54784.6158,-53802.9928,54785.5162,982.5234,0.3001,982.8235,0.3668,-275,0.0088,275,0.0323,0;0.5;0,1,982.4324,1.0,1001.0,-462.0,1,1
536,983.1904,-54786.1831,-53802.9928,54786.4666,983.4738,0.3001,983.7739,0.3668,275,0.0088,-275,0.0117,1;0;0,0,983.3745,1.0,966.0,-474.0,1,0
537,984.1407,-54787.1335,-53802.9928,54789.9513,986.9585,0.3001,987.2587,0.3668,-275,0,275,0.0235,0;0.5;0,1,986.8677,1.0,961.0,-469.0,1,1
538,987.6255,-54790.6183,-53802.9928,54792.6024,989.6096,0.3001,989.9097,0.3668,-275,0.45,275,0.4582,0;0.5;0,1,989.5186,1.0,961.0,-459.0,1,1
539,990.2766,-54793.2693,-53802.9928,54800.8057,997.8129,0.3001,998.1131,0.3668,275,0.2,-275,1,1;0;0,0,997.7135,1.0,959.0,-454.0,1,0
540,998.4799,-54801.4727,-53802.9928,54802.7398,999.7470,0.3001,1000.0472,0.3668,275,0,-275,0.0029,1;0;0,0,999.6561,1.0,966.0,-434.0,1,0
541,1000.4140,-54803.4068,-53802.9928,54804.3572,1001.3644,0.3001,1001.6645,0.3668,-275,0.0088,275,0.0759,0;0.5;0,1,1001.2649,1.0,955.0,-512.0,1,1
542,1002.0313,-54805.0241,-53802.9928,54805.5410,1002.5482,0.3001,1002.8483,0.3668,275,0.0088,-275,0.0323,0;0.5;0,0,1002.4488,0.0,-1011.0,-472.0,1,1
543,1003.2151,-54806.2079,-53802.9928,54806.6914,1003.6986,0.3001,1003.9988,0.3668,275,0.0088,-275,0.0759,0;0.5;0,0,1003.5993,0.0,-1002.0,-478.0,1,1
544,1004.3656,-54807.3584,-53802.9928,54807.9920,1004.9992,0.3001,1005.2993,0.3668,275,0.2,-275,1,0;0.5;0,0,1004.8998,0.0,-965.0,-528.0,1,1
545,1005.6661,-54808.6589,-53802.9928,54809.0924,1006.0996,0.3001,1006.3997,0.3668,275,0.0167,-275,0.0838,0;0.5;0,0,1006.0085,0.0,-987.0,-521.0,1,1
546,1006.7665,-54809.7593,-53802.9928,54810.2929,1007.3001,0.3001,1007.6002,0.3668,275,0.0167,-275,0.0177,0;0.5;0,0,1007.2008,0.0,-965.0,-558.0,1,1
547,1007.9670,-54810.9598,-53802.9928,54812.1603,1009.1675,0.3001,1009.4676,0.3668,275,0.0167,-275,0.0177,0;0.5;0,0,1009.0681,0.0,-982.0,-516.0,1,1
548,1009.8345,-54812.8272,-53802.9928,54813.4942,1010.5014,0.3001,1010.8015,0.3668,275,0.0088,-275,0.0098,0;0.5;0,0,1010.4103,0.0,-1012.0,-455.0,1,1
549,1011.1683,-54814.1611,-53802.9928,54814.5946,1011.6018,0.3001,1011.9020,0.3668,275,0.0088,-275,0.0098,0;0.5;0,0,1011.5108,0.0,-996.0,-479.0,1,1
550,1012.2688,-54815.2616,-53802.9928,54815.8451,1012.8523,0.3001,1013.1525,0.3668,-275,0.0088,275,0.0323,1;0;0,1,1012.7529,0.0,-995.0,-461.0,1,0
551,1013.5193,-54816.5121,-53802.9928,54816.6455,1013.6527,0.3001,1013.9528,0.3668,-275,0.0167,275,0.0177,0;0.5;0,1,1013.5533,1.0,918.0,-518.0,1,1
552,1014.3196,-54817.3124,-53802.9928,54817.9293,1014.9365,0.3001,1015.2366,0.3668,-275,0.0167,275,0.0196,1;0;0,1,1014.8371,0.0,-978.0,-467.0,1,0
553,1015.6035,-54818.5962,-53802.9928,54818.8964,1015.9036,0.3001,1016.2037,0.3668,275,0.0088,-275,0.017,1;0;0,0,1015.8125,1.0,929.0,-493.0,1,0
554,1016.5705,-54819.5633,-53802.9928,54819.7467,1016.7539,0.3001,1017.0540,0.3668,275,0.45,-275,0.4735,0;0.5;0,0,1016.6628,0.0,-982.0,-493.0,1,1
555,1017.4209,-54820.4136,-53802.9928,54820.9972,1018.0044,0.3001,1018.3045,0.3668,275,0.0088,-275,0.0323,1;0;0,0,1017.9133,1.0,929.0,-514.0,1,0
556,1018.6714,-54821.6641,-53802.9928,54822.1310,1019.1382,0.3001,1019.4383,0.3668,-275,0.05,275,0.6,0;0.5;0,1,1019.0387,1.0,945.0,-476.0,1,1
557,1019.8051,-54822.7979,-53802.9928,54823.3315,1020.3387,0.3001,1020.6388,0.3668,-275,0,275,0.0029,0;0.5;0,1,1020.2476,1.0,951.0,-618.0,1,1
558,1021.0056,-54823.9984,-53802.9928,54824.6153,1021.6226,0.3001,1021.9227,0.3668,275,0.05,-275,0.1171,0;0.5;0,0,1021.5316,0.0,-960.0,-514.0,1,1
559,1022.2895,-54825.2823,-53802.9928,54825.7158,1022.7230,0.3001,1023.0231,0.3668,-275,0.0088,275,0.0759,0;0.5;0,1,1022.6236,1.0,937.0,-518.0,1,1
560,1023.3899,-54826.3827,-53802.9928,54827.3998,1024.4070,0.3001,1024.7071,0.3668,-275,0,275,0.0235,0;0.5;0,1,1024.3075,1.0,929.0,-529.0,1,1