trial,presentation_startTime,presentation_duration,prefeedback_startTime,prefeedback_duration,feedback_startTime,feedback_duration,fixation_startTime,fixation_duration,presentation_object1_positionX,presentation_object1_contrastValue,presentation_object2_positionX,presentation_object2_contrastValue,feedback_object1_color,trialValue,presentation_responseTime,presentation_response,presentation_touchPositionX,presentation_touchPositionY,respondedInTime,correct
1,97.8396,-17372.7452,-17274.9056,17373.3955,98.4899,0.3001,98.7900,0.3668,275,0.2,-275,0.2671,0;0.5;0,0,98.3905,0.0,-1027.0,-573.0,1,1
2,99.1568,-17374.0624,-17274.9056,17374.7293,99.8238,0.3001,100.1239,0.3668,-275,0.0088,275,0.0759,0;0.5;0,1,99.7243,1.0,909.0,-487.0,1,1
3,100.4907,-17375.3963,-17274.9056,17376.2633,101.3577,0.3001,101.6579,0.3668,-275,0.0088,275,0.017,0;0.5;0,1,101.2583,1.0,911.0,-484.0,1,1
4,102.0247,-17376.9302,-17274.9056,17377.8973,102.9917,0.3001,103.2919,0.3668,275,0.2,-275,0.2671,0;0.5;0,0,102.8922,0.0,-934.0,-533.0,1,1
5,103.6587,-17378.5642,-17274.9056,17379.3145,104.4090,0.3001,104.7091,0.3668,275,0.45,-275,0.4582,1;0;0,0,104.3094,1.0,869.0,-464.0,1,0
6,105.0759,-17379.9815,-17274.9056,17380.6317,105.7262,0.3001,106.0263,0.3668,-275,0.0167,275,0.0402,0;0.5;0,1,105.6267,1.0,882.0,-479.0,1,1
7,106.3931,-17381.2987,-17274.9056,17382.0323,107.1267,0.3001,107.4269,0.3668,-275,0.0088,275,0.017,0;0.5;0,1,107.0357,1.0,881.0,-455.0,1,1
8,107.7937,-17382.6992,-17274.9056,17383.5329,108.6273,0.3001,108.9275,0.3668,-275,0.2,275,0.2235,0;0.5;0,1,108.5363,1.0,874.0,-464.0,1,1
9,109.2943,-17384.1998,-17274.9056,17384.6667,109.7611,0.3001,110.0613,0.3668,275,0.0088,-275,0.0759,0;0.5;0,0,109.6700,0.0,-913.0,-544.0,1,1
10,110.4281,-17385.3336,-17274.9056,17386.7509,111.8453,0.3001,112.1454,0.3668,275,0,-275,0.0029,0;0.5;0,0,111.7459,0.0,-908.0,-553.0,1,1
11,112.5123,-17387.4178,-17274.9056,17390.3690,115.4634,0.3001,115.7636,0.3668,275,0,-275,0.001,1;0;0,0,115.3723,1.0,863.0,-474.0,1,0
12,116.1304,-17391.0359,-17274.9056,17391.7863,116.8807,0.3001,117.1808,0.3668,-275,0.0088,275,0.0323,0;0.5;0,1,116.7897,1.0,871.0,-455.0,1,1
13,117.5476,-17392.4532,-17274.9056,17393.0034,118.0978,0.3001,118.3980,0.3668,-275,0.05,275,0.1171,0;0.5;0,1,117.9984,1.0,894.0,-460.0,1,1
14,118.7648,-17393.6703,-17274.9056,17394.2873,119.3817,0.3001,119.6818,0.3668,-275,0.0167,275,0.0838,0;0.5;0,1,119.2823,1.0,887.0,-441.0,1,1
15,120.0486,-17394.9542,-17274.9056,17396.4548,121.5492,0.3001,121.8494,0.3668,275,0.2,-275,0.2235,0;0.5;0,0,121.4582,0.0,-914.0,-460.0,1,1
16,122.2162,-17397.1217,-17274.9056,17397.7887,122.8831,0.3001,123.1832,0.3668,275,0.2,-275,0.3921,0;0.5;0,0,122.7921,0.0,-921.0,-458.0,1,1
17,123.5501,-17398.4556,-17274.9056,17399.0559,124.1503,0.3001,124.4504,0.3668,-275,0.2,275,0.3921,0;0.5;0,1,124.0593,1.0,898.0,-449.0,1,1
18,124.8172,-17399.7228,-17274.9056,17400.2563,125.3508,0.3001,125.6509,0.3668,-275,0.0088,275,0.2009,0;0.5;0,1,125.2514,1.0,889.0,-438.0,1,1
19,126.0177,-17400.9233,-17274.9056,17402.8241,127.9185,0.3001,128.2186,0.3668,275,0,-275,0.0029,1;0;0,0,127.8275,1.0,900.0,-447.0,1,0
20,128.5854,-17403.4910,-17274.9056,17404.1246,129.2190,0.3001,129.5191,0.3668,-275,0,275,0.0235,0;0.5;0,1,129.1194,1.0,906.0,-450.0,1,1
21,129.8860,-17404.7915,-17274.9056,17405.3084,130.4028,0.3001,130.7030,0.3668,-275,0.0088,275,0.2009,0;0.5;0,1,130.3118,1.0,893.0,-451.0,1,1
22,131.0698,-17405.9753,-17274.9056,17406.7423,131.8367,0.3001,132.1369,0.3668,275,0,-275,0.0235,0;0.5;0,0,131.7372,0.0,-969.0,-390.0,1,1
23,132.5037,-17407.4092,-17274.9056,17409.0599,134.1543,0.3001,134.4545,0.3668,-275,0,275,0.001,0;0.5;0,1,134.0631,1.0,897.0,-440.0,1,1
24,134.8213,-17409.7268,-17274.9056,17411.0941,136.1885,0.3001,136.4886,0.3668,275,0.45,-275,0.5171,1;0;0,0,136.0891,1.0,891.0,-456.0,1,0
25,136.8554,-17411.7610,-17274.9056,17412.8615,137.9559,0.3001,138.2560,0.3668,-275,0.0088,275,0.0759,0;0.5;0,1,137.8648,1.0,901.0,-465.0,1,1
26,138.6228,-17413.5284,-17274.9056,17414.1120,139.2064,0.3001,139.5065,0.3668,275,0.0088,-275,0.0323,0;0.5;0,0,139.1153,0.0,-959.0,-395.0,1,1
27,139.8733,-17414.7789,-17274.9056,17415.2958,140.3902,0.3001,140.6903,0.3668,-275,0.0167,275,0.0838,0;0.5;0,1,140.2908,1.0,898.0,-464.0,1,1
28,141.0571,-17415.9627,-17274.9056,17416.4963,141.5907,0.3001,141.8908,0.3668,-275,0.0088,275,0.0759,0;0.5;0,1,141.4997,1.0,898.0,-471.0,1,1
29,142.2576,-17417.1632,-17274.9056,17418.6305,143.7249,0.3001,144.0250,0.3710,275,0,-275,0.0082,0;0.5;0,0,143.6254,0.0,-993.0,-407.0,1,1
30,144.3960,-17419.3016,-17274.9056,17420.0977,145.1921,0.3001,145.4923,0.3668,-275,0.0167,275,0.0177,0;0.5;0,1,145.0928,1.0,927.0,-402.0,1,1
31,145.8591,-17420.7646,-17274.9056,17421.5150,146.6094,0.3001,146.9095,0.3668,275,0.0167,-275,0.0196,1;0;0,0,146.5183,1.0,898.0,-448.0,1,0
32,147.2763,-17422.1819,-17274.9056,17423.2490,148.3434,0.3001,148.6435,0.3668,275,0.45,-275,0.5171,0;0.5;0,0,148.2440,0.0,-927.0,-445.0,1,1
33,149.0104,-17423.9159,-17274.9056,17424.6496,149.7440,0.3001,150.0441,0.3668,275,0.0167,-275,0.0838,0;0.5;0,0,149.6529,0.0,-937.0,-422.0,1,1
34,150.4109,-17425.3165,-17274.9056,17425.8667,150.9611,0.3001,151.2613,0.3668,-275,0.2,275,0.75,0;0.5;0,1,150.8701,1.0,911.0,-460.0,1,1
35,151.6281,-17426.5336,-17274.9056,17427.3006,152.3951,0.3001,152.6952,0.3668,-275,0.0088,275,0.017,0;0.5;0,1,152.2956,1.0,911.0,-465.0,1,1
36,153.0620,-17427.9676,-17274.9056,17429.4515,154.5459,0.3001,154.8461,0.3668,-275,0.0088,275,0.0117,0;0.5;0,1,154.4466,1.0,865.0,-493.0,1,1
37,155.2129,-17430.1184,-17274.9056,17430.8687,155.9632,0.3001,156.2633,0.3668,275,0.2,-275,0.2235,1;0;0,0,155.8638,1.0,884.0,-450.0,1,0
38,156.6301,-17431.5357,-17274.9056,17432.1526,157.2470,0.3001,157.5471,0.3668,-275,0.0167,275,0.0402,0;0.5;0,1,157.1561,1.0,889.0,-451.0,1,1
39,157.9140,-17432.8195,-17274.9056,17433.4531,158.5476,0.3001,158.8477,0.3668,275,0.2,-275,0.3921,0;0.5;0,0,158.4565,0.0,-941.0,-448.0,1,1
40,159.2145,-17434.1201,-17274.9056,17434.8037,159.8981,0.3001,160.1982,0.3668,-275,0.45,275,0.6421,0;0.5;0,1,159.8071,1.0,899.0,-466.0,1,1
41,160.5650,-17435.4706,-17274.9056,17436.1042,161.1986,0.3001,161.4987,0.3668,275,0.0167,-275,0.0838,0;0.5;0,0,161.1076,0.0,-929.0,-448.0,1,1
42,161.8656,-17436.7711,-17274.9056,17437.2713,162.3658,0.3001,162.6659,0.3668,-275,0.0088,275,0.0759,0;0.5;0,1,162.2747,1.0,891.0,-460.0,1,1
43,163.0327,-17437.9383,-17274.9056,17438.4885,163.5829,0.3001,163.8830,0.3668,275,0.0088,-275,0.017,0;0.5;0,0,163.4835,0.0,-950.0,-426.0,1,1
44,164.2499,-17439.1554,-17274.9056,17439.9891,165.0835,0.3001,165.3837,0.3668,275,0.45,-275,0.4735,1;0;0,0,164.9925,1.0,877.0,-447.0,1,0
45,165.7505,-17440.6560,-17274.9056,17442.3734,167.4678,0.3001,167.7679,0.3668,-275,0,275,0.0029,1;0;0,1,167.3685,0.0,-931.0,-457.0,1,0
46,168.1348,-17443.0403,-17274.9056,17443.7406,168.8350,0.3001,169.1352,0.3668,275,0.05,-275,0.0529,1;0;0,0,168.7357,1.0,869.0,-451.0,1,0
47,169.5020,-17444.4075,-17274.9056,17445.3913,170.4857,0.3001,170.7858,0.3668,-275,0.45,275,0.4735,0;0.5;0,1,170.3947,1.0,864.0,-408.0,1,1
48,171.1527,-17446.0582,-17274.9056,17446.7252,171.8196,0.3001,172.1197,0.3668,275,0.0167,-275,0.2088,0;0.5;0,0,171.7201,0.0,-934.0,-436.0,1,1
49,172.4865,-17447.3921,-17274.9056,17448.1924,173.2868,0.3001,173.5870,0.3668,-275,0.0088,275,0.0098,0;0.5;0,1,173.1875,1.0,890.0,-405.0,1,1
50,173.9538,-17448.8593,-17274.9056,17449.5263,174.6207,0.3001,174.9208,0.3668,275,0.0167,-275,0.0838,0;0.5;0,0,174.5297,0.0,-968.0,-374.0,1,1
51,175.2877,-17450.1932,-17274.9056,17450.7768,175.8712,0.3001,176.1713,0.3668,-275,0.45,275,0.5171,0;0.5;0,1,175.7801,1.0,883.0,-427.0,1,1
52,176.5382,-17451.4437,-17274.9056,17451.9439,177.0384,0.3001,177.3385,0.3668,-275,0,275,0.1921,0;0.5;0,1,176.9473,1.0,895.0,-431.0,1,1
53,177.7053,-17452.6109,-17274.9056,17454.7617,179.8562,0.3001,180.1563,0.3668,275,0,-275,0.0029,1;0;0,0,179.7652,1.0,903.0,-445.0,1,0
54,180.5231,-17455.4287,-17274.9056,17458.3632,183.4576,0.3001,183.7577,0.3668,275,0,-275,0.0029,0;0.5;0,0,183.3583,0.0,-948.0,-407.0,1,1
55,184.1246,-17459.0301,-17274.9056,17460.5641,185.6585,0.3001,185.9586,0.3668,275,0.45,-275,0.5171,1;0;0,0,185.5675,1.0,873.0,-416.0,1,0
56,186.3255,-17461.2310,-17274.9056,17461.8980,186.9924,0.3001,187.2925,0.3668,275,0.05,-275,0.1171,0;0.5;0,0,186.8930,0.0,-935.0,-443.0,1,1
57,187.6593,-17462.5649,-17274.9056,17463.4819,188.5764,0.3001,188.8765,0.3668,275,0.0167,-275,0.0249,0;0.5;0,0,188.4853,0.0,-943.0,-422.0,1,1
58,189.2433,-17464.1489,-17274.9056,17464.8158,189.9102,0.3001,190.2104,0.3668,-275,0.2,275,0.75,0;0.5;0,1,189.8107,1.0,869.0,-430.0,1,1
59,190.5772,-17465.4827,-17274.9056,17466.6165,191.7110,0.3001,192.0111,0.3668,-275,0.0167,275,0.0249,1;0;0,1,191.6199,0.0,-954.0,-448.0,1,0
60,192.3779,-17467.2835,-17274.9056,17467.8003,192.8948,0.3001,193.1949,0.3668,-275,0.05,275,0.2421,0;0.5;0,1,192.7953,1.0,860.0,-440.0,1,1
61,193.5617,-17468.4673,-17274.9056,17469.2843,194.3787,0.3001,194.6788,0.3668,-275,0.0167,275,0.0196,0;0.5;0,1,194.2877,1.0,850.0,-422.0,1,1
62,195.0456,-17469.9512,-17274.9056,17470.5515,195.6459,0.3001,195.9460,0.3668,-275,0.2,275,0.2671,0;0.5;0,1,195.5466,1.0,856.0,-421.0,1,1
63,196.3128,-17471.2184,-17274.9056,17472.4189,197.5133,0.3001,197.8134,0.3668,275,0.45,-275,0.4735,1;0;0,0,197.4140,1.0,859.0,-426.0,1,0
64,198.1802,-17473.0858,-17274.9056,17473.6694,198.7638,0.3001,199.0639,0.3668,-275,0.2,275,0.3921,0;0.5;0,1,198.6644,1.0,860.0,-431.0,1,1
65,199.4308,-17474.3363,-17274.9056,17474.9032,199.9976,0.3001,200.2978,0.3668,-275,0.45,275,1,0;0.5;0,1,199.9066,1.0,852.0,-421.0,1,1
66,200.6646,-17475.5701,-17274.9056,17476.2538,201.3482,0.3001,201.6483,0.3668,-275,0.0167,275,0.0402,0;0.5;0,1,201.2572,1.0,868.0,-435.0,1,1
67,202.0151,-17476.9207,-17274.9056,17477.5543,202.6487,0.3001,202.9488,0.3668,275,0.05,-275,0.6,0;0.5;0,0,202.5577,0.0,-893.0,-471.0,1,1
68,203.3157,-17478.2212,-17274.9056,17479.8719,204.9663,0.3001,205.2664,0.3668,-275,0.2,275,0.2082,1;0;0,1,204.8753,0.0,-915.0,-431.0,1,0
69,205.6333,-17480.5388,-17274.9056,17481.2266,206.3210,0.3001,206.6212,0.3626,275,0.2,-275,0.3921,0;0.5;0,0,206.2174,0.0,-914.0,-470.0,1,1
70,206.9838,-17481.8894,-17274.9056,17482.6730,207.7675,0.3001,208.0676,0.3668,275,0,-275,0.1921,0;0.5;0,0,207.6764,0.0,-953.0,-412.0,1,1
71,208.4344,-17483.3400,-17274.9056,17484.4404,209.5348,0.3001,209.8350,0.3668,-275,0.05,275,0.0582,0;0.5;0,1,209.4438,1.0,848.0,-437.0,1,1
72,210.2018,-17485.1073,-17274.9056,17485.7909,210.8854,0.3001,211.1855,0.3668,275,0,-275,0.0235,0;0.5;0,0,210.7943,0.0,-950.0,-437.0,1,1
73,211.5523,-17486.4579,-17274.9056,17487.0415,212.1359,0.3001,212.4360,0.3668,-275,0.05,275,0.6,0;0.5;0,1,212.0364,1.0,861.0,-425.0,1,1
74,212.8028,-17487.7084,-17274.9056,17488.4754,213.5698,0.3001,213.8699,0.3668,-275,0.2,275,1,0;0.5;0,1,213.4788,1.0,879.0,-458.0,1,1
75,214.2367,-17489.1423,-17274.9056,17490.3761,215.4706,0.3001,215.7707,0.3668,-275,0.45,275,0.5171,0;0.5;0,1,215.3795,1.0,862.0,-423.0,1,1
76,216.1375,-17491.0431,-17274.9056,17492.1769,217.2713,0.3001,217.5714,0.3668,275,0.05,-275,0.0529,1;0;0,0,217.1719,1.0,861.0,-433.0,1,0
77,217.9382,-17492.8438,-17274.9056,17493.3440,218.4384,0.3001,218.7386,0.3668,275,0.0088,-275,0.2009,0;0.5;0,0,218.3474,0.0,-947.0,-446.0,1,1
78,219.1054,-17494.0109,-17274.9056,17494.5612,219.6556,0.3001,219.9557,0.3668,-275,0,275,0.0235,0;0.5;0,1,219.5561,1.0,857.0,-438.0,1,1
79,220.3225,-17495.2281,-17274.9056,17495.9451,221.0395,0.3001,221.3396,0.3668,-275,0.0167,275,0.0402,0;0.5;0,1,220.9401,1.0,842.0,-427.0,1,1
80,221.7064,-17496.6120,-17274.9056,17498.0626,223.1570,0.3001,223.4571,0.3668,275,0.0088,-275,0.0098,1;0;0,0,223.0576,1.0,845.0,-430.0,1,0
81,223.8239,-17498.7295,-17274.9056,17499.3298,224.4242,0.3001,224.7243,0.3668,-275,0.0088,275,0.2009,0;0.5;0,1,224.3332,1.0,861.0,-420.0,1,1
82,225.0911,-17499.9967,-17274.9056,17500.9804,226.0749,0.3001,226.3750,0.3668,275,0.05,-275,0.0529,1;0;0,0,225.9837,1.0,871.0,-423.0,1,0
83,226.7418,-17501.6474,-17274.9056,17502.3476,227.4421,0.3001,227.7422,0.3668,-275,0.2,275,1,0;0.5;0,1,227.3427,1.0,860.0,-431.0,1,1
84,228.1090,-17503.0146,-17274.9056,17504.9153,230.0098,0.3001,230.3099,0.3668,-275,0,275,0.0029,0;0.5;0,1,229.9104,1.0,863.0,-423.0,1,1
85,230.6767,-17505.5823,-17274.9056,17508.1500,233.2444,0.3001,233.5445,0.3668,275,0.0167,-275,0.0196,1;0;0,0,233.1533,1.0,870.0,-393.0,1,0
86,233.9114,-17508.8169,-17274.9056,17510.5510,235.6454,0.3001,235.9455,0.3668,-275,0.45,275,0.4582,1;0;0,1,235.5543,0.0,-878.0,-434.0,1,0
87,236.3123,-17511.2179,-17274.9056,17511.7848,236.8792,0.3001,237.1793,0.3668,-275,0.05,275,0.6,0;0.5;0,1,236.7881,1.0,840.0,-424.0,1,1
88,237.5462,-17512.4517,-17274.9056,17515.5863,240.6808,0.3001,240.9809,0.3668,-275,0.0088,275,0.0098,0;0.5;0,1,240.5898,1.0,838.0,-412.0,1,1
89,241.3477,-17516.2533,-17274.9056,17517.4037,242.4982,0.3001,242.7983,0.3668,-275,0.0088,275,0.0117,0;0.5;0,1,242.4071,1.0,865.0,-395.0,1,1
90,243.1651,-17518.0707,-17274.9056,17518.6042,243.6986,0.3001,243.9988,0.3668,-275,0.2,275,0.2671,0;0.5;0,1,243.6076,1.0,847.0,-399.0,1,1
91,244.3656,-17519.2711,-17274.9056,17519.8380,244.9325,0.3001,245.2326,0.3668,-275,0.05,275,0.1171,0;0.5;0,1,244.8414,1.0,834.0,-416.0,1,1
92,245.5994,-17520.5050,-17274.9056,17522.1056,247.2001,0.3001,247.5002,0.3668,275,0.45,-275,0.4735,0;0.5;0,0,247.1006,0.0,-895.0,-445.0,1,1
93,247.8670,-17522.7726,-17274.9056,17523.5395,248.6340,0.3001,248.9341,0.3668,275,0.0167,-275,0.0177,0;0.5;0,0,248.5346,0.0,-884.0,-491.0,1,1
94,249.3009,-17524.2065,-17274.9056,17524.8234,249.9178,0.3001,250.2179,0.3668,275,0.05,-275,0.2421,0;0.5;0,0,249.8184,0.0,-898.0,-458.0,1,1
95,250.5848,-17525.4903,-17274.9056,17527.1743,252.2688,0.3001,252.5689,0.3668,275,0.0088,-275,0.017,0;0.5;0,0,252.1777,0.0,-923.0,-438.0,1,1
96,252.9357,-17527.8413,-17274.9056,17528.7083,253.8027,0.3001,254.1028,0.3668,275,0.0167,-275,0.0196,0;0.5;0,0,253.7117,0.0,-895.0,-479.0,1,1
97,254.4697,-17529.3752,-17274.9056,17529.9588,255.0532,0.3001,255.3534,0.3668,275,0.2,-275,0.75,0;0.5;0,0,254.9539,0.0,-944.0,-455.0,1,1
98,255.7202,-17530.6257,-17274.9056,17532.2597,257.3542,0.3001,257.6543,0.3668,-275,0.45,275,0.4582,1;0;0,1,257.2548,0.0,-913.0,-436.0,1,0
99,258.0211,-17532.9267,-17274.9056,17534.1271,259.2216,0.3001,259.5217,0.3668,275,0,-275,0.0082,0;0.5;0,0,259.1222,0.0,-961.0,-437.0,1,1
100,259.8885,-17534.7941,-17274.9056,17535.4610,260.5555,0.3001,260.8556,0.3668,-275,0,275,0.0235,0;0.5;0,1,260.4560,1.0,857.0,-436.0,1,1
101,261.2224,-17536.1280,-17274.9056,17537.9120,263.0064,0.3001,263.3066,0.3668,-275,0.05,275,0.0529,0;0.5;0,1,262.9070,1.0,859.0,-435.0,1,1
102,263.6734,-17538.5789,-17274.9056,17539.1125,264.2069,0.3001,264.5071,0.3668,-275,0.05,275,0.2421,0;0.5;0,1,264.1074,1.0,860.0,-432.0,1,1
103,264.8739,-17539.7794,-17274.9056,17541.2300,266.3245,0.3001,266.6246,0.3668,-275,0,275,0.001,0;0.5;0,1,266.2250,1.0,848.0,-435.0,1,1
104,266.9914,-17541.8970,-17274.9056,17543.0808,268.1752,0.3001,268.4753,0.3668,275,0.0088,-275,0.017,0;0.5;0,0,268.0841,0.0,-935.0,-455.0,1,1
105,268.8421,-17543.7477,-17274.9056,17544.3813,269.4757,0.3001,269.7758,0.3668,-275,0.2,275,0.2671,0;0.5;0,1,269.3764,1.0,850.0,-435.0,1,1
106,270.1427,-17545.0482,-17274.9056,17547.1824,272.2769,0.3001,272.5770,0.3668,-275,0,275,0.0082,0;0.5;0,1,272.1776,1.0,843.0,-435.0,1,1
107,272.9438,-17547.8494,-17274.9056,17550.8339,275.9283,0.3001,276.2285,0.3668,275,0.0167,-275,0.2088,1;0;0,0,275.8288,1.0,874.0,-381.0,1,0
108,276.5953,-17551.5008,-17274.9056,17552.2678,277.3622,0.3001,277.6624,0.3668,-275,0,275,0.0235,0;0.5;0,1,277.2628,1.0,853.0,-405.0,1,1
109,278.0292,-17552.9347,-17274.9056,17553.5350,278.6294,0.3001,278.9295,0.3668,-275,0.45,275,0.4582,0;0.5;0,1,278.5301,1.0,851.0,-383.0,1,1
110,279.2964,-17554.2019,-17274.9056,17554.8522,279.9466,0.3001,280.2467,0.3668,275,0.05,-275,0.6,0;0.5;0,0,279.8555,0.0,-913.0,-430.0,1,1
111,280.6136,-17555.5191,-17274.9056,17557.0864,282.1809,0.3001,282.4810,0.3710,275,0.2,-275,0.2082,0;0.5;0,0,282.0898,0.0,-966.0,-389.0,1,1
112,282.8520,-17557.7575,-17274.9056,17558.3869,283.4814,0.3001,283.7815,0.3668,275,0.45,-275,0.4735,1;0;0,0,283.3819,1.0,830.0,-430.0,1,0
113,284.1483,-17559.0539,-17274.9056,17560.5878,285.6823,0.3001,285.9824,0.3710,275,0.05,-275,0.0582,1;0;0,0,285.5911,1.0,820.0,-412.0,1,0
114,286.3534,-17561.2589,-17274.9056,17561.9217,287.0161,0.3001,287.3163,0.3668,-275,0.45,275,1,0;0.5;0,1,286.9168,1.0,811.0,-418.0,1,1
115,287.6831,-17562.5886,-17274.9056,17563.3223,288.4167,0.3001,288.7168,0.3668,-275,0.0088,275,0.017,0;0.5;0,1,288.3174,1.0,821.0,-408.0,1,1
116,289.0836,-17563.9892,-17274.9056,17565.6565,290.7510,0.3001,291.0511,0.3668,275,0.0088,-275,0.0098,1;0;0,0,290.6600,1.0,866.0,-356.0,1,0
117,291.4179,-17566.3235,-17274.9056,17566.9737,292.0682,0.3001,292.3683,0.3668,275,0.05,-275,0.6,0;0.5;0,0,291.9772,0.0,-910.0,-443.0,1,1
118,292.7351,-17567.6407,-17274.9056,17568.3076,293.4021,0.3001,293.7022,0.3668,275,0.2,-275,0.3921,0;0.5;0,0,293.3111,0.0,-899.0,-445.0,1,1
119,294.0690,-17568.9746,-17274.9056,17569.6415,294.7359,0.3001,295.0360,0.3668,275,0,-275,0.0671,0;0.5;0,0,294.6365,0.0,-906.0,-423.0,1,1
120,295.4029,-17570.3084,-17274.9056,17571.5589,296.6534,0.3001,296.9535,0.3668,-275,0,275,0.0082,0;0.5;0,1,296.5623,1.0,814.0,-426.0,1,1
121,297.3203,-17572.2259,-17274.9056,17573.9932,299.0877,0.3001,299.3878,0.3668,-275,0.0088,275,0.0117,1;0;0,1,298.9883,0.0,-915.0,-447.0,1,0
122,299.7546,-17574.6602,-17274.9056,17575.6773,300.7717,0.3001,301.0718,0.3668,-275,0.0167,275,0.0249,1;0;0,1,300.6722,0.0,-883.0,-463.0,1,0
123,301.4386,-17576.3442,-17274.9056,17578.2616,303.3561,0.3001,303.6562,0.3668,275,0.0167,-275,0.0249,0;0.5;0,0,303.2565,0.0,-959.0,-458.0,1,1
124,304.0230,-17578.9286,-17274.9056,17580.2624,305.3569,0.3001,305.6570,0.3668,-275,0.05,275,0.0582,1;0;0,1,305.2575,0.0,-972.0,-471.0,1,0
125,306.0238,-17580.9294,-17274.9056,17582.3800,307.4744,0.3001,307.7745,0.3668,-275,0.0088,275,0.0098,0;0.5;0,1,307.3751,1.0,848.0,-389.0,1,1
126,308.1413,-17583.0469,-17274.9056,17583.7639,308.8583,0.3001,309.1584,0.3668,275,0.0088,-275,0.0323,0;0.5;0,0,308.7673,0.0,-965.0,-448.0,1,1
127,309.5252,-17584.4308,-17274.9056,17585.6313,310.7257,0.3001,311.0258,0.3668,275,0.0167,-275,0.0177,0;0.5;0,0,310.6264,0.0,-936.0,-429.0,1,1
128,311.3927,-17586.2982,-17274.9056,17587.3153,312.4097,0.3001,312.7098,0.3668,-275,0.2,275,0.2082,1;0;0,1,312.3104,0.0,-940.0,-397.0,1,0
129,313.0767,-17587.9822,-17274.9056,17588.6658,313.7603,0.3001,314.0604,0.3668,275,0.0088,-275,0.0759,0;0.5;0,0,313.6693,0.0,-925.0,-427.0,1,1
130,314.4272,-17589.3328,-17274.9056,17589.9664,315.0608,0.3001,315.3609,0.3668,275,0.2,-275,0.3921,0;0.5;0,0,314.9697,0.0,-937.0,-437.0,1,1
131,315.7277,-17590.6333,-17274.9056,17591.4003,316.4947,0.3001,316.7948,0.3668,-275,0.2,275,0.2235,0;0.5;0,1,316.4036,1.0,846.0,-407.0,1,1
132,317.1616,-17592.0672,-17274.9056,17592.6341,317.7285,0.3001,318.0287,0.3668,-275,0.45,275,0.6421,0;0.5;0,1,317.6374,1.0,836.0,-421.0,1,1
133,318.3955,-17593.3010,-17274.9056,17594.5682,319.6627,0.3001,319.9628,0.3668,-275,0.05,275,0.0529,0;0.5;0,1,319.5632,1.0,826.0,-430.0,1,1
134,320.3296,-17595.2352,-17274.9056,17595.8187,320.9132,0.3001,321.2133,0.3668,275,0.2,-275,1,0;0.5;0,0,320.8221,0.0,-912.0,-445.0,1,1
135,321.5801,-17596.4857,-17274.9056,17596.9692,322.0636,0.3001,322.3637,0.3668,-275,0.0088,275,0.2009,0;0.5;0,1,321.9724,1.0,836.0,-420.0,1,1
136,322.7306,-17597.6361,-17274.9056,17598.1697,323.2641,0.3001,323.5642,0.3668,-275,0.2,275,1,0;0.5;0,1,323.1646,1.0,842.0,-421.0,1,1
137,323.9310,-17598.8366,-17274.9056,17599.3368,324.4312,0.3001,324.7314,0.3668,275,0.45,-275,1,0;0.5;0,0,324.3402,0.0,-935.0,-445.0,1,1
138,325.0982,-17600.0037,-17274.9056,17600.7707,325.8652,0.3001,326.1653,0.3668,275,0.0167,-275,0.0402,0;0.5;0,0,325.7741,0.0,-935.0,-461.0,1,1
139,326.5321,-17601.4377,-17274.9056,17602.1046,327.1990,0.3001,327.4992,0.3668,275,0.05,-275,0.0582,0;0.5;0,0,327.0995,0.0,-918.0,-464.0,1,1
140,327.8660,-17602.7715,-17274.9056,17603.4051,328.4996,0.3001,328.7997,0.3668,275,0.05,-275,0.0582,0;0.5;0,0,328.4084,0.0,-912.0,-455.0,1,1
141,329.1665,-17604.0721,-17274.9056,17605.2892,330.3836,0.3001,330.6838,0.3668,-275,0,275,0.0082,0;0.5;0,1,330.2841,1.0,839.0,-418.0,1,1
142,331.0506,-17605.9561,-17274.9056,17606.3230,331.4174,0.3001,331.7175,0.3668,275,0.0088,-275,0.0117,1;0;0,0,331.3264,1.0,841.0,-420.0,1,0
143,332.0843,-17606.9899,-17274.9056,17607.1566,332.2511,0.3001,332.5512,0.3668,275,0,-275,0.0082,1;0;0,0,332.1518,1.0,841.0,-408.0,1,0
144,332.9180,-17607.8236,-17274.9056,17608.6739,333.7683,0.3001,334.0685,0.3668,275,0.0167,-275,0.0196,1;0;0,0,333.6689,1.0,842.0,-397.0,1,0
145,334.4353,-17609.3408,-17274.9056,17609.8410,334.9355,0.3001,335.2356,0.3668,-275,0,275,0.1921,0;0.5;0,1,334.8444,1.0,825.0,-410.0,1,1
146,335.6024,-17610.5080,-17274.9056,17611.1082,336.2027,0.3001,336.5028,0.3668,-275,0.45,275,0.5171,0;0.5;0,1,336.1116,1.0,830.0,-391.0,1,1
147,336.8696,-17611.7752,-17274.9056,17612.2920,337.3865,0.3001,337.6866,0.3668,-275,0.45,275,0.4582,0;0.5;0,1,337.2954,1.0,826.0,-398.0,1,1
148,338.0534,-17612.9590,-17274.9056,17613.4592,338.5536,0.3001,338.8537,0.3668,-275,0.2,275,0.3921,0;0.5;0,1,338.4543,1.0,814.0,-414.0,1,1
149,339.2205,-17614.1261,-17274.9056,17614.6930,339.7874,0.3001,340.0876,0.3668,275,0.0167,-275,0.2088,0;0.5;0,0,339.6964,0.0,-900.0,-472.0,1,1
150,340.4544,-17615.3599,-17274.9056,17616.1936,341.2880,0.3001,341.5882,0.3668,275,0.05,-275,0.0582,1;0;0,0,341.1887,1.0,825.0,-414.0,1,0
151,341.9550,-17616.8605,-17274.9056,17617.3607,342.4552,0.3001,342.7553,0.3668,-275,0.05,275,0.1171,0;0.5;0,1,342.3558,1.0,829.0,-413.0,1,1
152,343.1221,-17618.0277,-17274.9056,17618.9447,344.0392,0.3001,344.3393,0.3668,275,0,-275,0.0082,0;0.5;0,0,343.9482,0.0,-884.0,-460.0,1,1
153,344.7061,-17619.6117,-17274.9056,17620.1786,345.2730,0.3001,345.5731,0.3668,275,0.0088,-275,0.017,0;0.5;0,0,345.1819,0.0,-923.0,-444.0,1,1
154,345.9399,-17620.8455,-17274.9056,17621.5958,346.6902,0.3001,346.9903,0.3668,-275,0.45,275,0.4735,0;0.5;0,1,346.5908,1.0,829.0,-402.0,1,1
155,347.3572,-17622.2627,-17274.9056,17622.8963,347.9908,0.3001,348.2909,0.3668,275,0.2,-275,0.75,0;0.5;0,0,347.8915,0.0,-888.0,-434.0,1,1
156,348.6577,-17623.5633,-17274.9056,17624.0134,349.1079,0.3001,349.4080,0.3668,275,0.05,-275,0.2421,0;0.5;0,0,349.0083,0.0,-892.0,-445.0,1,1
157,349.7748,-17624.6804,-17274.9056,17625.1472,350.2417,0.3001,350.5418,0.3668,275,0,-275,0.1921,0;0.5;0,0,350.1423,0.0,-894.0,-450.0,1,1
158,350.9086,-17625.8142,-17274.9056,17626.4477,351.5422,0.3001,351.8423,0.3668,-275,0.0088,275,0.0323,0;0.5;0,1,351.4427,1.0,840.0,-405.0,1,1
159,352.2091,-17627.1147,-17274.9056,17627.7149,352.8094,0.3001,353.1095,0.3668,275,0,-275,0.0029,1;0;0,0,352.7184,1.0,808.0,-419.0,1,0
160,353.4763,-17628.3819,-17274.9056,17629.0488,354.1432,0.3001,354.4434,0.3668,-275,0.0088,275,0.0323,0;0.5;0,1,354.0438,1.0,829.0,-385.0,1,1
161,354.8102,-17629.7157,-17274.9056,17630.2993,355.3937,0.3001,355.6939,0.3668,275,0.2,-275,0.75,0;0.5;0,0,355.2943,0.0,-890.0,-447.0,1,1
162,356.0607,-17630.9662,-17274.9056,17631.6165,356.7109,0.3001,357.0111,0.3668,275,0.0167,-275,0.0838,0;0.5;0,0,356.6115,0.0,-908.0,-428.0,1,1
163,357.3779,-17632.2834,-17274.9056,17632.8003,357.8947,0.3001,358.1949,0.3668,275,0.05,-275,0.0735,0;0.5;0,0,357.8037,0.0,-908.0,-442.0,1,1
164,358.5617,-17633.4672,-17274.9056,17633.9341,359.0285,0.3001,359.3287,0.3668,275,0.05,-275,0.2421,0;0.5;0,0,358.9373,0.0,-902.0,-463.0,1,1
165,359.6955,-17634.6010,-17274.9056,17635.1846,360.2790,0.3001,360.5792,0.3668,-275,0.45,275,0.4582,0;0.5;0,1,360.1881,1.0,822.0,-417.0,1,1
166,360.9460,-17635.8515,-17274.9056,17636.3684,361.4629,0.3001,361.7630,0.3668,275,0.2,-275,1,0;0.5;0,0,361.3719,0.0,-889.0,-438.0,1,1
167,362.1298,-17637.0354,-17274.9056,17637.4855,362.5800,0.3001,362.8801,0.3668,275,0.0088,-275,0.0759,0;0.5;0,0,362.4890,0.0,-916.0,-417.0,1,1
168,363.2469,-17638.1525,-17274.9056,17638.7861,363.8805,0.3001,364.1806,0.3668,275,0.05,-275,0.1171,0;0.5;0,0,363.7894,0.0,-902.0,-444.0,1,1
169,364.5474,-17639.4530,-17274.9056,17640.0366,365.1310,0.3001,365.4311,0.3668,-275,0.45,275,0.5171,0;0.5;0,1,365.0316,1.0,816.0,-426.0,1,1
170,365.7979,-17640.7035,-17274.9056,17641.8039,366.8984,0.3001,367.1985,0.3668,-275,0,275,0.1921,0;0.5;0,1,366.8074,1.0,812.0,-418.0,1,1
171,367.5653,-17642.4709,-17274.9056,17643.2045,368.2989,0.3001,368.5991,0.3668,-275,0.0167,275,0.0249,0;0.5;0,1,368.1998,1.0,808.0,-416.0,1,1
172,368.9659,-17643.8714,-17274.9056,17644.5217,369.6161,0.3001,369.9163,0.3668,275,0,-275,0.0235,0;0.5;0,0,369.5168,0.0,-879.0,-447.0,1,1
173,370.2831,-17645.1886,-17274.9056,17645.8889,370.9834,0.3001,371.2835,0.3668,-275,0.05,275,0.0529,0;0.5;0,1,370.8840,1.0,816.0,-398.0,1,1
174,371.6503,-17646.5559,-17274.9056,17647.3062,372.4006,0.3001,372.7007,0.3668,275,0.2,-275,0.2671,0;0.5;0,0,372.3095,0.0,-884.0,-436.0,1,1
175,373.0675,-17647.9731,-17274.9056,17648.6234,373.7178,0.3001,374.0179,0.3668,275,0.45,-275,0.6421,0;0.5;0,0,373.6267,0.0,-869.0,-422.0,1,1
176,374.3847,-17649.2903,-17274.9056,17649.9072,375.0016,0.3001,375.3018,0.3668,275,0.45,-275,0.5171,0;0.5;0,0,374.9106,0.0,-891.0,-424.0,1,1
177,375.6686,-17650.5741,-17274.9056,17651.1744,376.2688,0.3001,376.5689,0.3668,-275,0.2,275,0.75,0;0.5;0,1,376.1695,1.0,815.0,-400.0,1,1
178,376.9358,-17651.8413,-17274.9056,17652.4416,377.5360,0.3001,377.8361,0.3668,275,0.45,-275,1,0;0.5;0,0,377.4366,0.0,-906.0,-420.0,1,1
179,378.2029,-17653.1085,-17274.9056,17653.8588,378.9532,0.3001,379.2534,0.3668,275,0.45,-275,0.6421,0;0.5;0,0,378.8538,0.0,-881.0,-436.0,1,1
180,379.6202,-17654.5257,-17274.9056,17656.1597,381.2542,0.3001,381.5543,0.3668,-275,0.45,275,0.6421,0;0.5;0,1,381.1546,1.0,809.0,-393.0,1,1
181,381.9211,-17656.8267,-17274.9056,17657.7104,382.8048,0.3001,383.1049,0.3668,-275,0.0167,275,0.0249,0;0.5;0,1,382.7054,1.0,809.0,-407.0,1,1
182,383.4717,-17658.3773,-17274.9056,17658.9942,384.0886,0.3001,384.3888,0.3668,275,0.0167,-275,0.2088,0;0.5;0,0,383.9976,0.0,-872.0,-414.0,1,1
183,384.7556,-17659.6611,-17274.9056,17660.3448,385.4392,0.3001,385.7393,0.3668,275,0.05,-275,0.0529,1;0;0,0,385.3398,1.0,815.0,-379.0,1,0
184,386.1061,-17661.0117,-17274.9056,17661.5786,386.6730,0.3001,386.9731,0.3668,-275,0.2,275,0.75,0;0.5;0,1,386.5736,1.0,801.0,-396.0,1,1
185,387.3400,-17662.2455,-17274.9056,17663.0125,388.1069,0.3001,388.4071,0.3668,275,0.0167,-275,0.0249,1;0;0,0,388.0075,1.0,817.0,-369.0,1,0
186,388.7739,-17663.6794,-17274.9056,17664.6465,389.7409,0.3001,390.0410,0.3668,-275,0.0167,275,0.0838,0;0.5;0,1,389.6500,1.0,816.0,-373.0,1,1
187,390.4079,-17665.3134,-17274.9056,17666.0471,391.1415,0.3001,391.4416,0.3668,-275,0,275,0.0235,0;0.5;0,1,391.0421,1.0,814.0,-353.0,1,1
188,391.8084,-17666.7140,-17274.9056,17667.9645,393.0589,0.3001,393.3591,0.3668,275,0.45,-275,0.6421,0;0.5;0,0,392.9595,0.0,-865.0,-423.0,1,1
189,393.7259,-17668.6314,-17274.9056,17669.1316,394.2261,0.3001,394.5262,0.3668,-275,0.0088,275,0.0759,0;0.5;0,1,394.1349,1.0,816.0,-383.0,1,1
190,394.8930,-17669.7986,-17274.9056,17670.3821,395.4766,0.3001,395.7767,0.3668,-275,0.45,275,0.6421,0;0.5;0,1,395.3771,1.0,816.0,-375.0,1,1
191,396.1435,-17671.0491,-17274.9056,17671.5826,396.6771,0.3001,396.9772,0.3668,275,0.05,-275,0.6,0;0.5;0,0,396.5860,0.0,-882.0,-431.0,1,1
192,397.3440,-17672.2496,-17274.9056,17673.6334,398.7279,0.3001,399.0280,0.3668,275,0,-275,0.001,0;0.5;0,0,398.6369,0.0,-903.0,-405.0,1,1
193,399.3948,-17674.3004,-17274.9056,17675.0340,400.1284,0.3001,400.4286,0.3668,-275,0.2,275,0.75,0;0.5;0,1,400.0375,1.0,803.0,-380.0,1,1
194,400.7954,-17675.7009,-17274.9056,17676.2845,401.3790,0.3001,401.6791,0.3668,275,0.45,-275,1,0;0.5;0,0,401.2795,0.0,-889.0,-409.0,1,1
195,402.0459,-17676.9515,-17274.9056,17677.8518,402.9462,0.3001,403.2464,0.3668,275,0.45,-275,0.4582,0;0.5;0,0,402.8469,0.0,-905.0,-404.0,1,1
196,403.6132,-17678.5187,-17274.9056,17679.1190,404.2134,0.3001,404.5135,0.3668,-275,0.2,275,0.2082,0;0.5;0,1,404.1140,1.0,826.0,-377.0,1,1
197,404.8804,-17679.7859,-17274.9056,17680.6196,405.7140,0.3001,406.0142,0.3668,-275,0.0167,275,0.0402,0;0.5;0,1,405.6229,1.0,822.0,-378.0,1,1
198,406.3810,-17681.2865,-17274.9056,17681.9868,407.0812,0.3001,407.3814,0.3668,-275,0.0167,275,0.0177,0;0.5;0,1,406.9901,1.0,811.0,-393.0,1,1
199,407.7482,-17682.6537,-17274.9056,17683.2707,408.3651,0.3001,408.6652,0.3668,-275,0.05,275,0.0735,0;0.5;0,1,408.2656,1.0,821.0,-369.0,1,1
200,409.0320,-17683.9376,-17274.9056,17684.7379,409.8324,0.3001,410.1325,0.3668,-275,0,275,0.0029,0;0.5;0,1,409.7413,1.0,817.0,-373.0,1,1
201,410.4993,-17685.4049,-17274.9056,17686.0551,411.1496,0.3001,411.4497,0.3668,275,0.05,-275,0.2421,0;0.5;0,0,411.0585,0.0,-883.0,-418.0,1,1
202,411.8165,-17686.7221,-17274.9056,17687.5224,412.6168,0.3001,412.9169,0.3668,-275,0.05,275,0.1171,0;0.5;0,1,412.5258,1.0,834.0,-373.0,1,1
203,413.2838,-17688.1893,-17274.9056,17689.0730,414.1674,0.3001,414.4676,0.3668,275,0.0088,-275,0.0117,0;0.5;0,0,414.0764,0.0,-883.0,-403.0,1,1
204,414.8344,-17689.7399,-17274.9056,17690.2568,415.3513,0.3001,415.6514,0.3668,-275,0.2,275,0.2671,0;0.5;0,1,415.2519,1.0,824.0,-379.0,1,1
205,416.0182,-17690.9237,-17274.9056,17691.6741,416.7685,0.3001,417.0686,0.3668,275,0.0167,-275,0.0177,0;0.5;0,0,416.6774,0.0,-902.0,-397.0,1,1
206,417.4354,-17692.3410,-17274.9056,17694.9087,420.0031,0.3001,420.3032,0.3668,275,0,-275,0.0082,1;0;0,0,419.9038,1.0,829.0,-388.0,1,0
207,420.6701,-17695.5756,-17274.9056,17696.1925,421.2870,0.3001,421.5871,0.3668,275,0.2,-275,0.2671,1;0;0,0,421.1876,1.0,861.0,-359.0,1,0
208,421.9539,-17696.8595,-17274.9056,17698.3934,423.4879,0.3001,423.7880,0.3668,275,0,-275,0.0082,1;0;0,0,423.3884,1.0,828.0,-359.0,1,0
209,424.1548,-17699.0604,-17274.9056,17699.8607,424.9551,0.3001,425.2552,0.3668,-275,0,275,0.0235,0;0.5;0,1,424.8557,1.0,844.0,-355.0,1,1
210,425.6221,-17700.5276,-17274.9056,17702.1950,427.2894,0.3001,427.5895,0.3668,-275,0,275,0.0082,0;0.5;0,1,427.1984,1.0,867.0,-340.0,1,1
211,427.9563,-17702.8619,-17274.9056,17703.5122,428.6066,0.3001,428.9067,0.3668,-275,0.0088,275,0.0759,0;0.5;0,1,428.5156,1.0,821.0,-367.0,1,1
212,429.2735,-17704.1791,-17274.9056,17705.0128,430.1072,0.3001,430.4073,0.3668,275,0.0167,-275,0.0838,0;0.5;0,0,430.0078,0.0,-819.0,-431.0,1,1
213,430.7741,-17705.6797,-17274.9056,17706.2799,431.3744,0.3001,431.6745,0.3668,275,0,-275,0.0671,0;0.5;0,0,431.2832,0.0,-875.0,-413.0,1,1
214,432.0413,-17706.9469,-17274.9056,17707.6638,432.7583,0.3001,433.0584,0.3668,-275,0.05,275,0.2421,0;0.5;0,1,432.6671,1.0,818.0,-391.0,1,1
215,433.4252,-17708.3308,-17274.9056,17708.9644,434.0588,0.3001,434.3589,0.3668,275,0.0088,-275,0.017,0;0.5;0,0,433.9593,0.0,-849.0,-445.0,1,1
216,434.7257,-17709.6313,-17274.9056,17710.5483,435.6428,0.3001,435.9429,0.3668,275,0.0167,-275,0.2088,0;0.5;0,0,435.5517,0.0,-846.0,-436.0,1,1
217,436.3097,-17711.2153,-17274.9056,17712.0156,437.1100,0.3001,437.4101,0.3668,-275,0.2,275,0.2082,0;0.5;0,1,437.0108,1.0,799.0,-394.0,1,1
218,437.7770,-17712.6825,-17274.9056,17713.3995,438.4939,0.3001,438.7940,0.3668,275,0.2,-275,0.2082,1;0;0,0,438.3945,1.0,786.0,-405.0,1,0
219,439.1608,-17714.0664,-17274.9056,17715.2669,440.3613,0.3001,440.6615,0.3668,-275,0,275,0.0671,0;0.5;0,1,440.2703,1.0,802.0,-403.0,1,1
220,441.0283,-17715.9338,-17274.9056,17716.6174,441.7119,0.3001,442.0120,0.3668,275,0.0088,-275,0.0117,0;0.5;0,0,441.6125,0.0,-872.0,-416.0,1,1
221,442.3788,-17717.2844,-17274.9056,17718.6182,443.7127,0.3001,444.0128,0.3668,275,0.0167,-275,0.0402,0;0.5;0,0,443.6133,0.0,-897.0,-373.0,1,1
222,444.3796,-17719.2852,-17274.9056,17719.9188,445.0132,0.3001,445.3133,0.3668,275,0.2,-275,1,0;0.5;0,0,444.9221,0.0,-869.0,-420.0,1,1
223,445.6801,-17720.5857,-17274.9056,17721.1193,446.2137,0.3001,446.5138,0.3668,-275,0.2,275,1,0;0.5;0,1,446.1226,1.0,802.0,-390.0,1,1
224,446.8806,-17721.7862,-17274.9056,17722.5698,447.6643,0.3001,447.9644,0.3668,275,0.45,-275,0.5171,0;0.5;0,0,447.5649,0.0,-889.0,-406.0,1,1
225,448.3312,-17723.2368,-17274.9056,17724.0538,449.1482,0.3001,449.4483,0.3668,275,0.0167,-275,0.0249,1;0;0,0,449.0571,1.0,796.0,-395.0,1,0
226,449.8151,-17724.7207,-17274.9056,17725.2876,450.3820,0.3001,450.6822,0.3668,275,0.2,-275,1,0;0.5;0,0,450.2825,0.0,-893.0,-413.0,1,1
227,451.0490,-17725.9545,-17274.9056,17726.6715,451.7659,0.3001,452.0660,0.3668,-275,0.05,275,0.0582,0;0.5;0,1,451.6749,1.0,797.0,-394.0,1,1
228,452.4329,-17727.3384,-17274.9056,17728.2555,453.3499,0.3001,453.6500,0.3668,-275,0.2,275,0.2671,0;0.5;0,1,453.2589,1.0,788.0,-387.0,1,1
229,454.0168,-17728.9224,-17274.9056,17730.2229,455.3174,0.3001,455.6175,0.3668,-275,0.0088,275,0.0117,0;0.5;0,1,455.2179,1.0,771.0,-389.0,1,1
230,455.9843,-17730.8899,-17274.9056,17731.5568,456.6512,0.3001,456.9513,0.3668,-275,0,275,0.0671,0;0.5;0,1,456.5603,1.0,799.0,-366.0,1,1
231,457.3182,-17732.2237,-17274.9056,17732.8907,457.9851,0.3001,458.2852,0.3668,275,0,-275,0.0671,0;0.5;0,0,457.8940,0.0,-866.0,-433.0,1,1
232,458.6520,-17733.5576,-17274.9056,17734.3079,459.4023,0.3001,459.7025,0.3668,275,0.0167,-275,0.2088,0;0.5;0,0,459.3030,0.0,-881.0,-413.0,1,1
233,460.0693,-17734.9748,-17274.9056,17736.1253,461.2197,0.3001,461.5199,0.3668,275,0.05,-275,0.0529,0;0.5;0,0,461.1203,0.0,-889.0,-420.0,1,1
234,461.8867,-17736.7922,-17274.9056,17737.5759,462.6703,0.3001,462.9704,0.3668,275,0.0167,-275,0.0249,0;0.5;0,0,462.5709,0.0,-874.0,-439.0,1,1
235,463.3373,-17738.2428,-17274.9056,17738.8431,463.9375,0.3001,464.2376,0.3668,275,0.2,-275,1,0;0.5;0,0,463.8380,0.0,-901.0,-400.0,1,1
236,464.6044,-17739.5100,-17274.9056,17740.2270,465.3214,0.3001,465.6215,0.3668,-275,0.05,275,0.0735,0;0.5;0,1,465.2219,1.0,785.0,-390.0,1,1
237,465.9883,-17740.8939,-17274.9056,17741.5275,466.6219,0.3001,466.9220,0.3668,275,0.05,-275,0.0735,0;0.5;0,0,466.5309,0.0,-895.0,-406.0,1,1
238,467.2888,-17742.1944,-17274.9056,17742.8613,467.9558,0.3001,468.2559,0.3668,-275,0.45,275,0.6421,0;0.5;0,1,467.8563,1.0,792.0,-376.0,1,1
239,468.6227,-17743.5283,-17274.9056,17744.2286,469.3230,0.3001,469.6231,0.3668,275,0.0088,-275,0.0323,0;0.5;0,0,469.2235,0.0,-885.0,-402.0,1,1
240,469.9899,-17744.8955,-17274.9056,17745.3624,470.4568,0.3001,470.7569,0.3668,-275,0.2,275,0.75,0;0.5;0,1,470.3658,1.0,808.0,-369.0,1,1
241,471.1237,-17746.0293,-17274.9056,17746.8296,471.9240,0.3001,472.2242,0.3668,-275,0.05,275,0.0529,0;0.5;0,1,471.8331,1.0,786.0,-383.0,1,1
242,472.5910,-17747.4965,-17274.9056,17748.0801,473.1745,0.3001,473.4747,0.3668,275,0.05,-275,0.0582,0;0.5;0,0,473.0752,0.0,-894.0,-397.0,1,1
243,473.8415,-17748.7470,-17274.9056,17749.7141,474.8085,0.3001,475.1087,0.3668,275,0.0167,-275,0.2088,0;0.5;0,0,474.7176,0.0,-904.0,-388.0,1,1
244,475.4755,-17750.3810,-17274.9056,17751.1147,476.2091,0.3001,476.5092,0.3668,275,0.05,-275,0.0735,0;0.5;0,0,476.1181,0.0,-903.0,-390.0,1,1
245,476.8760,-17751.7816,-17274.9056,17752.4986,477.5930,0.3001,477.8931,0.3668,275,0.05,-275,0.0529,1;0;0,0,477.5021,1.0,802.0,-359.0,1,0
246,478.2599,-17753.1655,-17274.9056,17754.4493,479.5438,0.3001,479.8439,0.3668,-275,0.0088,275,0.0323,0;0.5;0,1,479.4526,1.0,781.0,-371.0,1,1
247,480.2107,-17755.1163,-17274.9056,17755.9666,481.0611,0.3001,481.3612,0.3668,-275,0.05,275,0.0529,0;0.5;0,1,480.9701,1.0,792.0,-359.0,1,1
248,481.7280,-17756.6336,-17274.9056,17757.3005,482.3949,0.3001,482.6951,0.3668,275,0.45,-275,1,0;0.5;0,0,482.3039,0.0,-874.0,-393.0,1,1
249,483.0619,-17757.9674,-17274.9056,17758.4843,483.5787,0.3001,483.8789,0.3668,275,0,-275,0.0671,0;0.5;0,0,483.4878,0.0,-888.0,-411.0,1,1
250,484.2457,-17759.1512,-17274.9056,17760.5685,485.6629,0.3001,485.9630,0.3668,-275,0.2,275,0.2235,0;0.5;0,1,485.5635,1.0,791.0,-373.0,1,1
251,486.3298,-17761.2354,-17274.9056,17762.0024,487.0968,0.3001,487.3969,0.3668,-275,0.05,275,0.2421,0;0.5;0,1,487.0058,1.0,796.0,-373.0,1,1
252,487.7638,-17762.6693,-17274.9056,17764.0532,489.1476,0.3001,489.4478,0.3668,275,0.2,-275,0.2235,1;0;0,0,489.0565,1.0,802.0,-364.0,1,0
253,489.8146,-17764.7201,-17274.9056,17765.9206,491.0151,0.3001,491.3152,0.3668,275,0,-275,0.1921,0;0.5;0,0,490.9157,0.0,-870.0,-377.0,1,1
254,491.6820,-17766.5876,-17274.9056,17767.2545,492.3489,0.3001,492.6491,0.3668,-275,0.05,275,0.0735,0;0.5;0,1,492.2578,1.0,784.0,-376.0,1,1
255,493.0159,-17767.9214,-17274.9056,17768.5717,493.6661,0.3001,493.9663,0.3668,-275,0.45,275,0.4735,0;0.5;0,1,493.5750,1.0,792.0,-384.0,1,1
256,494.3331,-17769.2386,-17274.9056,17769.8389,494.9333,0.3001,495.2334,0.3668,-275,0.45,275,0.5171,0;0.5;0,1,494.8422,1.0,793.0,-378.0,1,1
257,495.6002,-17770.5058,-17274.9056,17771.1727,496.2672,0.3001,496.5673,0.3668,275,0.0088,-275,0.0323,0;0.5;0,0,496.1677,0.0,-866.0,-405.0,1,1
258,496.9341,-17771.8397,-17274.9056,17772.4899,497.5844,0.3001,497.8845,0.3668,275,0.2,-275,0.2671,0;0.5;0,0,497.4850,0.0,-890.0,-399.0,1,1
259,498.2513,-17773.1569,-17274.9056,17774.8409,499.9353,0.3001,500.2354,0.3668,-275,0.0088,275,0.0117,1;0;0,1,499.8360,0.0,-877.0,-383.0,1,0
260,500.6023,-17775.5078,-17274.9056,17776.1081,501.2025,0.3001,501.5026,0.3668,275,0.05,-275,0.6,0;0.5;0,0,501.1113,0.0,-903.0,-383.0,1,1
261,501.8694,-17776.7750,-17274.9056,17777.3752,502.4697,0.3001,502.7698,0.3668,275,0.0088,-275,0.2009,0;0.5;0,0,502.3701,0.0,-926.0,-377.0,1,1
262,503.1366,-17778.0422,-17274.9056,17778.9425,504.0370,0.3001,504.3371,0.3668,-275,0.05,275,0.0529,1;0;0,1,503.9376,0.0,-911.0,-369.0,1,0
263,504.7039,-17779.6095,-17274.9056,17780.8600,505.9544,0.3001,506.2545,0.3668,-275,0.0088,275,0.0117,0;0.5;0,1,505.8633,1.0,797.0,-377.0,1,1
264,506.6214,-17781.5269,-17274.9056,17782.1772,507.2716,0.3001,507.5717,0.3668,-275,0.0167,275,0.2088,0;0.5;0,1,507.1722,1.0,790.0,-380.0,1,1
265,507.9385,-17782.8441,-17274.9056,17783.5110,508.6055,0.3001,508.9056,0.3668,275,0.2,-275,1,0;0.5;0,0,508.5144,0.0,-880.0,-387.0,1,1
266,509.2724,-17784.1780,-17274.9056,17784.7449,509.8393,0.3001,510.1394,0.3668,275,0,-275,0.1921,0;0.5;0,0,509.7399,0.0,-897.0,-383.0,1,1
267,510.5062,-17785.4118,-17274.9056,17786.1121,511.2065,0.3001,511.5067,0.3668,275,0.0167,-275,0.0249,0;0.5;0,0,511.1071,0.0,-918.0,-346.0,1,1
268,511.8735,-17786.7790,-17274.9056,17787.4460,512.5404,0.3001,512.8405,0.3668,275,0.2,-275,0.2671,0;0.5;0,0,512.4494,0.0,-912.0,-363.0,1,1
269,513.2073,-17788.1129,-17274.9056,17788.8299,513.9243,0.3001,514.2244,0.3668,-275,0.0167,275,0.0838,0;0.5;0,1,513.8249,1.0,789.0,-378.0,1,1
270,514.5912,-17789.4968,-17274.9056,17790.0137,515.1081,0.3001,515.4082,0.3668,275,0.0167,-275,0.2088,0;0.5;0,0,515.0086,0.0,-903.0,-367.0,1,1
271,515.7750,-17790.6806,-17274.9056,17791.1641,516.2586,0.3001,516.5587,0.3668,-275,0.2,275,0.2671,0;0.5;0,1,516.1674,1.0,787.0,-381.0,1,1
272,516.9255,-17791.8311,-17274.9056,17792.3980,517.4924,0.3001,517.7925,0.3668,275,0.05,-275,0.2421,0;0.5;0,0,517.3929,0.0,-895.0,-369.0,1,1
273,518.1593,-17793.0649,-17274.9056,17793.6651,518.7596,0.3001,519.0597,0.3668,-275,0.45,275,0.4735,0;0.5;0,1,518.6602,1.0,787.0,-378.0,1,1
274,519.4265,-17794.3321,-17274.9056,17794.9657,520.0601,0.3001,520.3602,0.3668,-275,0.45,275,0.4735,1;0;0,1,519.9607,0.0,-921.0,-351.0,1,0
275,520.7270,-17795.6326,-17274.9056,17797.2999,522.3944,0.3001,522.6945,0.3668,275,0.2,-275,0.2235,1;0;0,0,522.2948,1.0,792.0,-358.0,1,0
276,523.0613,-17797.9669,-17274.9056,17799.6009,524.6953,0.3001,524.9954,0.3668,275,0,-275,0.0082,0;0.5;0,0,524.6043,0.0,-907.0,-338.0,1,1
277,525.3622,-17800.2678,-17274.9056,17801.4016,526.4960,0.3001,526.7961,0.3668,275,0,-275,0.001,1;0;0,0,526.3966,1.0,797.0,-352.0,1,0
278,527.1630,-17802.0685,-17274.9056,17802.8855,527.9799,0.3001,528.2801,0.3668,-275,0.45,275,0.6421,0;0.5;0,1,527.8805,1.0,794.0,-335.0,1,1
279,528.6469,-17803.5524,-17274.9056,17804.1860,529.2805,0.3001,529.5806,0.3668,-275,0,275,0.0671,0;0.5;0,1,529.1811,1.0,813.0,-327.0,1,1
280,529.9474,-17804.8530,-17274.9056,17805.3698,530.4643,0.3001,530.7644,0.3668,-275,0.2,275,1,0;0.5;0,1,530.3732,1.0,777.0,-364.0,1,1
281,531.1312,-17806.0368,-17274.9056,17806.8038,531.8982,0.3001,532.1983,0.3668,-275,0.45,275,1,0;0.5;0,1,531.8072,1.0,783.0,-362.0,1,1
282,532.5651,-17807.4707,-17274.9056,17808.7545,533.8490,0.3001,534.1491,0.3668,275,0.0088,-275,0.0098,0;0.5;0,0,533.7496,0.0,-906.0,-352.0,1,1
283,534.5159,-17809.4215,-17274.9056,17810.1384,535.2329,0.3001,535.5330,0.3668,-275,0.45,275,1,0;0.5;0,1,535.1418,1.0,782.0,-354.0,1,1
284,535.8998,-17810.8054,-17274.9056,17811.5223,536.6168,0.3001,536.9169,0.3668,275,0.0167,-275,0.0838,0;0.5;0,0,536.5174,0.0,-898.0,-373.0,1,1
285,537.2837,-17812.1893,-17274.9056,17812.6895,537.7839,0.3001,538.0840,0.3668,-275,0,275,0.0671,0;0.5;0,1,537.6844,1.0,786.0,-380.0,1,1
286,538.4508,-17813.3564,-17274.9056,17814.1567,539.2512,0.3001,539.5513,0.3668,-275,0.0167,275,0.0177,0;0.5;0,1,539.1517,1.0,769.0,-378.0,1,1
287,539.9181,-17814.8237,-17274.9056,17815.7574,540.8518,0.3001,541.1519,0.3668,275,0.45,-275,0.6421,1;0;0,0,540.7524,1.0,759.0,-370.0,1,0
288,541.5187,-17816.4243,-17274.9056,17818.5752,543.6696,0.3001,543.9697,0.3668,-275,0.05,275,0.0582,1;0;0,1,543.5787,0.0,-907.0,-367.0,1,0
289,544.3365,-17819.2421,-17274.9056,17820.0424,545.1369,0.3001,545.4370,0.3668,-275,0.0167,275,0.0177,1;0;0,1,545.0459,0.0,-911.0,-372.0,1,0
290,545.8038,-17820.7094,-17274.9056,17821.5430,546.6375,0.3001,546.9376,0.3668,-275,0.0167,275,0.0249,1;0;0,1,546.5380,0.0,-908.0,-354.0,1,0
291,547.3044,-17822.2100,-17274.9056,17823.5772,548.6716,0.3001,548.9717,0.3668,-275,0.2,275,0.2235,0;0.5;0,1,548.5721,1.0,765.0,-355.0,1,1
292,549.3385,-17824.2441,-17274.9056,17825.0278,550.1222,0.3001,550.4223,0.3668,275,0.0167,-275,0.0177,0;0.5;0,0,550.0228,0.0,-913.0,-366.0,1,1
293,550.7891,-17825.6947,-17274.9056,17826.3283,551.4227,0.3001,551.7228,0.3668,275,0.2,-275,0.2235,1;0;0,0,551.3318,1.0,776.0,-361.0,1,0
294,552.0897,-17826.9952,-17274.9056,17829.0627,554.1572,0.3001,554.4573,0.3668,275,0.05,-275,0.1171,1;0;0,0,554.0577,1.0,766.0,-369.0,1,0
295,554.8241,-17829.7297,-17274.9056,17830.3632,555.4577,0.3001,555.7578,0.3668,275,0.0167,-275,0.0838,0;0.5;0,0,555.3667,0.0,-907.0,-383.0,1,1
296,556.1246,-17831.0302,-17274.9056,17831.7138,556.8082,0.3001,557.1083,0.3668,275,0.45,-275,0.6421,0;0.5;0,0,556.7172,0.0,-949.0,-349.0,1,1
297,557.4752,-17832.3807,-17274.9056,17834.8484,559.9428,0.3001,560.2429,0.3668,275,0.0088,-275,0.0323,1;0;0,0,559.8516,1.0,772.0,-358.0,1,0
298,560.6097,-17835.5153,-17274.9056,17837.2327,562.3271,0.3001,562.6272,0.3668,-275,0.0167,275,0.0196,1;0;0,1,562.2277,0.0,-893.0,-328.0,1,0
299,562.9940,-17837.8996,-17274.9056,17838.5332,563.6276,0.3001,563.9277,0.3668,-275,0.0167,275,0.0402,0;0.5;0,1,563.5283,1.0,778.0,-356.0,1,1
300,564.2946,-17839.2001,-17274.9056,17840.5340,565.6284,0.3001,565.9286,0.3668,-275,0.45,275,0.4582,0;0.5;0,1,565.5375,1.0,773.0,-357.0,1,1
301,566.2954,-17841.2009,-17274.9056,17841.6344,566.7289,0.3001,567.0290,0.3668,-275,0,275,0.0671,0;0.5;0,1,566.6378,1.0,770.0,-362.0,1,1
302,567.3958,-17842.3014,-17274.9056,17845.5027,570.5971,0.3001,570.8972,0.3668,-275,0,275,0.0082,1;0;0,1,570.5061,0.0,-905.0,-351.0,1,0
303,571.2640,-17846.1696,-17274.9056,17847.0366,572.1311,0.3001,572.4312,0.3668,-275,0.05,275,0.0735,0;0.5;0,1,572.0399,1.0,754.0,-372.0,1,1
304,572.7980,-17847.7035,-17274.9056,17852.1387,577.2331,0.3001,577.5332,0.3668,-275,0,275,0.0082,0;0.5;0,1,577.1420,1.0,778.0,-345.0,1,1
305,577.9000,-17852.8056,-17274.9056,17853.4225,578.5170,0.3001,578.8171,0.3668,-275,0.05,275,0.6,0;0.5;0,1,578.4177,1.0,778.0,-361.0,1,1
306,579.1839,-17854.0895,-17274.9056,17854.8398,579.9342,0.3001,580.2343,0.3668,-275,0,275,0.0029,1;0;0,1,579.8431,0.0,-906.0,-376.0,1,0
307,580.6011,-17855.5067,-17274.9056,17856.1236,581.2180,0.3001,581.5182,0.3668,-275,0.0167,275,0.0838,0;0.5;0,1,581.1270,1.0,790.0,-348.0,1,1
308,581.8850,-17856.7905,-17274.9056,17857.3408,582.4352,0.3001,582.7353,0.3668,-275,0.0167,275,0.2088,0;0.5;0,1,582.3358,1.0,781.0,-364.0,1,1
309,583.1021,-17858.0077,-17274.9056,17858.5913,583.6857,0.3001,583.9858,0.3668,-275,0.0167,275,0.0838,0;0.5;0,1,583.5948,1.0,793.0,-354.0,1,1
310,584.3526,-17859.2582,-17274.9056,17859.9752,585.0696,0.3001,585.3697,0.3668,-275,0.05,275,0.6,0;0.5;0,1,584.9786,1.0,790.0,-352.0,1,1
311,585.7365,-17860.6421,-17274.9056,17861.2590,586.3534,0.3001,586.6536,0.3668,275,0,-275,0.1921,0;0.5;0,0,586.2540,0.0,-902.0,-383.0,1,1
312,587.0204,-17861.9259,-17274.9056,17862.6762,587.7707,0.3001,588.0708,0.3668,275,0.2,-275,0.75,0;0.5;0,0,587.6796,0.0,-908.0,-383.0,1,1
313,588.4376,-17863.3432,-17274.9056,17864.1935,589.2880,0.3001,589.5881,0.3668,-275,0.0088,275,0.017,0;0.5;0,1,589.1885,1.0,759.0,-374.0,1,1
314,589.9549,-17864.8605,-17274.9056,17865.5941,590.6885,0.3001,590.9886,0.3668,275,0.05,-275,0.0529,0;0.5;0,0,590.5975,0.0,-911.0,-376.0,1,1
315,591.3555,-17866.2610,-17274.9056,17866.7612,591.8557,0.3001,592.1558,0.3668,275,0.05,-275,0.6,0;0.5;0,0,591.7563,0.0,-933.0,-383.0,1,1
316,592.5226,-17867.4281,-17274.9056,17868.2952,593.3896,0.3001,593.6897,0.3668,-275,0.0088,275,0.0117,1;0;0,1,593.2985,0.0,-952.0,-365.0,1,0
317,594.0565,-17868.9621,-17274.9056,17870.1959,595.2904,0.3001,595.5905,0.3668,275,0.2,-275,0.2082,1;0;0,0,595.1994,1.0,748.0,-388.0,1,0
318,595.9573,-17870.8629,-17274.9056,17871.3464,596.4408,0.3001,596.7409,0.3668,275,0.0088,-275,0.2009,0;0.5;0,0,596.3498,0.0,-939.0,-364.0,1,1
319,597.1078,-17872.0133,-17274.9056,17872.6636,597.7580,0.3001,598.0581,0.3668,-275,0.05,275,0.1171,0;0.5;0,1,597.6585,1.0,735.0,-402.0,1,1
320,598.4250,-17873.3305,-17274.9056,17873.9474,599.0419,0.3001,599.3420,0.3668,-275,0.2,275,0.3921,0;0.5;0,1,598.9509,1.0,758.0,-397.0,1,1
321,599.7088,-17874.6144,-17274.9056,17875.1479,600.2424,0.3001,600.5425,0.3668,275,0.0088,-275,0.2009,0;0.5;0,0,600.1429,0.0,-932.0,-378.0,1,1
322,600.9093,-17875.8149,-17274.9056,17876.4151,601.5095,0.3001,601.8097,0.3668,275,0.2,-275,0.75,0;0.5;0,0,601.4101,0.0,-938.0,-378.0,1,1
323,602.1765,-17877.0820,-17274.9056,17877.6489,602.7434,0.3001,603.0435,0.3668,275,0.0088,-275,0.2009,0;0.5;0,0,602.6523,0.0,-925.0,-400.0,1,1
324,603.4103,-17878.3159,-17274.9056,17879.8331,604.9276,0.3001,605.2277,0.3668,-275,0,275,0.0082,0;0.5;0,1,604.8365,1.0,754.0,-390.0,1,1
325,605.5945,-17880.5001,-17274.9056,17881.2337,606.3281,0.3001,606.6283,0.3668,-275,0.0088,275,0.0323,0;0.5;0,1,606.2372,1.0,780.0,-371.0,1,1
326,606.9951,-17881.9006,-17274.9056,17882.8510,607.9455,0.3001,608.2456,0.3668,-275,0.45,275,0.4582,0;0.5;0,1,607.8544,1.0,774.0,-364.0,1,1
327,608.6124,-17883.5180,-17274.9056,17884.1682,609.2627,0.3001,609.5628,0.3668,-275,0.05,275,0.6,0;0.5;0,1,609.1631,1.0,753.0,-388.0,1,1
328,609.9296,-17884.8352,-17274.9056,17885.8022,610.8966,0.3001,611.1968,0.3668,-275,0.2,275,0.2235,0;0.5;0,1,610.7972,1.0,772.0,-371.0,1,1
329,611.5636,-17886.4691,-17274.9056,17887.4862,612.5807,0.3001,612.8808,0.3668,275,0.2,-275,0.2082,1;0;0,0,612.4897,1.0,769.0,-379.0,1,0
330,613.2476,-17888.1532,-17274.9056,17888.7034,613.7978,0.3001,614.0979,0.3668,275,0.45,-275,0.5171,1;0;0,0,613.7068,1.0,766.0,-380.0,1,0
331,614.4647,-17889.3703,-17274.9056,17890.0039,615.0983,0.3001,615.3985,0.3668,-275,0,275,0.0671,0;0.5;0,1,615.0071,1.0,769.0,-381.0,1,1
332,615.7653,-17890.6708,-17274.9056,17891.7379,616.8324,0.3001,617.1325,0.3668,-275,0.0167,275,0.0177,1;0;0,1,616.7329,0.0,-926.0,-390.0,1,0
333,617.4993,-17892.4049,-17274.9056,17893.0051,618.0995,0.3001,618.3997,0.3668,275,0,-275,0.0671,0;0.5;0,0,618.0002,0.0,-931.0,-398.0,1,1
334,618.7665,-17893.6720,-17274.9056,17895.2393,620.3338,0.3001,620.6339,0.3668,275,0.0088,-275,0.0098,1;0;0,0,620.2345,1.0,762.0,-387.0,1,0
335,621.0007,-17895.9063,-17274.9056,17897.5903,622.6847,0.3001,622.9848,0.3668,-275,0.0167,275,0.0177,0;0.5;0,1,622.5937,1.0,765.0,-391.0,1,1
336,623.3517,-17898.2572,-17274.9056,17898.8241,623.9185,0.3001,624.2187,0.3668,275,0.2,-275,0.75,0;0.5;0,0,623.8191,0.0,-950.0,-373.0,1,1
337,624.5855,-17899.4910,-17274.9056,17900.6749,625.7693,0.3001,626.0694,0.3668,-275,0.2,275,0.2082,0;0.5;0,1,625.6781,1.0,769.0,-384.0,1,1
338,626.4362,-17901.3418,-17274.9056,17902.0087,627.1032,0.3001,627.4033,0.3668,275,0.2,-275,0.2082,1;0;0,0,627.0121,1.0,749.0,-402.0,1,0
339,627.7701,-17902.6757,-17274.9056,17903.8261,628.9206,0.3001,629.2207,0.3668,275,0.0167,-275,0.0402,1;0;0,0,628.8211,1.0,764.0,-388.0,1,0
340,629.5875,-17904.4931,-17274.9056,17904.6431,629.7376,0.3001,630.0377,0.3668,275,0.45,-275,0.4735,0;0.5;0,0,629.6466,0.0,-952.0,-376.0,1,1
341,630.4045,-17905.3101,-17274.9056,17906.0604,631.1548,0.3001,631.4549,0.3668,-275,0.0088,275,0.0759,0;0.5;0,1,631.0554,1.0,770.0,-388.0,1,1
342,631.8217,-17906.7273,-17274.9056,17907.2108,632.3053,0.3001,632.6054,0.3668,275,0.45,-275,0.5171,0;0.5;0,0,632.2142,0.0,-937.0,-369.0,1,1
343,632.9722,-17907.8777,-17274.9056,17908.4780,633.5724,0.3001,633.8725,0.3668,-275,0.45,275,0.6421,0;0.5;0,1,633.4729,1.0,765.0,-393.0,1,1
344,634.2394,-17909.1449,-17274.9056,17910.8123,635.9067,0.3001,636.2068,0.3668,-275,0.0088,275,0.0098,0;0.5;0,1,635.8073,1.0,783.0,-373.0,1,1
345,636.5736,-17911.4792,-17274.9056,17912.0461,637.1405,0.3001,637.4406,0.3668,-275,0.2,275,1,0;0.5;0,1,637.0412,1.0,769.0,-383.0,1,1
346,637.8075,-17912.7130,-17274.9056,17914.0636,639.1580,0.3001,639.4581,0.3668,-275,0.0167,275,0.0196,0;0.5;0,1,639.0587,1.0,772.0,-388.0,1,1
347,639.8249,-17914.7305,-17274.9056,17915.3474,640.4419,0.3001,640.7420,0.3668,-275,0.45,275,0.5171,0;0.5;0,1,640.3508,1.0,753.0,-405.0,1,1
348,641.1088,-17916.0144,-17274.9056,17916.5646,641.6590,0.3001,641.9591,0.3668,-275,0,275,0.1921,0;0.5;0,1,641.5681,1.0,760.0,-402.0,1,1
349,642.3259,-17917.2315,-17274.9056,17917.8818,642.9762,0.3001,643.2763,0.3668,275,0.0088,-275,0.0759,0;0.5;0,0,642.8768,0.0,-924.0,-388.0,1,1
350,643.6431,-17918.5487,-17274.9056,17919.2490,644.3434,0.3001,644.6435,0.3668,-275,0.0167,275,0.0249,0;0.5;0,1,644.2439,1.0,758.0,-402.0,1,1
351,645.0104,-17919.9159,-17274.9056,17920.4328,645.5272,0.3001,645.8274,0.3668,275,0.45,-275,1,0;0.5;0,0,645.4277,0.0,-946.0,-389.0,1,1
352,646.1942,-17921.0997,-17274.9056,17921.6500,646.7444,0.3001,647.0445,0.3668,-275,0.05,275,0.1171,0;0.5;0,1,646.6533,1.0,762.0,-402.0,1,1
353,647.4113,-17922.3169,-17274.9056,17922.8338,647.9282,0.3001,648.2283,0.3668,275,0.0088,-275,0.0759,0;0.5;0,0,647.8371,0.0,-948.0,-395.0,1,1
354,648.5951,-17923.5007,-17274.9056,17924.1176,649.2120,0.3001,649.5122,0.3668,-275,0.45,275,0.4735,0;0.5;0,1,649.1210,1.0,765.0,-391.0,1,1
355,649.8790,-17924.7845,-17274.9056,17925.2847,650.3792,0.3001,650.6793,0.3668,275,0.0167,-275,0.0838,0;0.5;0,0,650.2881,0.0,-944.0,-388.0,1,1
356,651.0461,-17925.9517,-17274.9056,17926.4352,651.5296,0.3001,651.8298,0.3668,-275,0.0088,275,0.2009,0;0.5;0,1,651.4386,1.0,766.0,-391.0,1,1
357,652.1966,-17927.1021,-17274.9056,17928.4527,653.5471,0.3001,653.8472,0.3668,-275,0,275,0.0029,0;0.5;0,1,653.4560,1.0,783.0,-370.0,1,1
358,654.2141,-17929.1196,-17274.9056,17929.9700,655.0644,0.3001,655.3645,0.3668,275,0.45,-275,0.4582,1;0;0,0,654.9650,1.0,766.0,-391.0,1,0
359,655.7313,-17930.6369,-17274.9056,17931.3705,656.4650,0.3001,656.7651,0.3668,275,0,-275,0.0235,0;0.5;0,0,656.3738,0.0,-927.0,-404.0,1,1
360,657.1319,-17932.0375,-17274.9056,17932.6710,657.7655,0.3001,658.0656,0.3668,-275,0.0088,275,0.0117,0;0.5;0,1,657.6746,1.0,773.0,-385.0,1,1
361,658.4324,-17933.3380,-17274.9056,17934.0049,659.0994,0.3001,659.3995,0.3668,275,0.05,-275,0.1171,0;0.5;0,0,658.9998,0.0,-927.0,-384.0,1,1
362,659.7663,-17934.6719,-17274.9056,17935.2387,660.3332,0.3001,660.6333,0.3668,-275,0.2,275,1,0;0.5;0,1,660.2338,1.0,758.0,-401.0,1,1
363,661.0001,-17935.9057,-17274.9056,17936.6060,661.7004,0.3001,662.0005,0.3668,275,0.0167,-275,0.0196,1;0;0,0,661.6094,1.0,741.0,-409.0,1,0
364,662.3673,-17937.2729,-17274.9056,17937.7898,662.8842,0.3001,663.1843,0.3668,-275,0,275,0.0671,0;0.5;0,1,662.7849,1.0,772.0,-388.0,1,1
365,663.5511,-17938.4567,-17274.9056,17939.4738,664.5682,0.3001,664.8683,0.3668,275,0.0167,-275,0.0249,1;0;0,0,664.4689,1.0,766.0,-393.0,1,0
366,665.2352,-17940.1407,-17274.9056,17940.8743,665.9688,0.3001,666.2689,0.3668,-275,0.2,275,0.3921,0;0.5;0,1,665.8694,1.0,769.0,-397.0,1,1
367,666.6357,-17941.5413,-17274.9056,17942.1415,667.2360,0.3001,667.5361,0.3668,-275,0.45,275,0.5171,0;0.5;0,1,667.1449,1.0,761.0,-384.0,1,1
368,667.9029,-17942.8085,-17274.9056,17943.3587,668.4531,0.3001,668.7532,0.3668,-275,0.0167,275,0.2088,0;0.5;0,1,668.3619,1.0,780.0,-373.0,1,1
369,669.1200,-17944.0256,-17274.9056,17944.5258,669.6203,0.3001,669.9204,0.3668,-275,0.05,275,0.6,0;0.5;0,1,669.5292,1.0,769.0,-391.0,1,1
370,670.2872,-17945.1927,-17274.9056,17945.8263,670.9208,0.3001,671.2209,0.3668,275,0,-275,0.0235,0;0.5;0,0,670.8213,0.0,-889.0,-412.0,1,1
371,671.5877,-17946.4933,-17274.9056,17947.1602,672.2546,0.3001,672.5548,0.3668,275,0.0088,-275,0.0098,1;0;0,0,672.1552,1.0,764.0,-384.0,1,0
372,672.9216,-17947.8271,-17274.9056,17948.4274,673.5218,0.3001,673.8219,0.3668,-275,0.2,275,0.2235,0;0.5;0,1,673.4307,1.0,767.0,-387.0,1,1
373,674.1888,-17949.0943,-17274.9056,17949.7112,674.8057,0.3001,675.1058,0.3668,-275,0.0088,275,0.0323,0;0.5;0,1,674.7062,1.0,764.0,-383.0,1,1
374,675.4726,-17950.3782,-17274.9056,17950.8617,675.9561,0.3001,676.2563,0.3668,-275,0,275,0.1921,0;0.5;0,1,675.8567,1.0,773.0,-378.0,1,1
375,676.6231,-17951.5286,-17274.9056,17952.6124,677.7068,0.3001,678.0070,0.3668,-275,0,275,0.0029,0;0.5;0,1,677.6074,1.0,778.0,-374.0,1,1
376,678.3738,-17953.2793,-17274.9056,17953.9129,679.0074,0.3001,679.3075,0.3668,-275,0.05,275,0.0735,0;0.5;0,1,678.9079,1.0,778.0,-378.0,1,1
377,679.6743,-17954.5799,-17274.9056,17955.0634,680.1578,0.3001,680.4579,0.3668,275,0,-275,0.1921,0;0.5;0,0,680.0668,0.0,-908.0,-405.0,1,1
378,680.8248,-17955.7303,-17274.9056,17956.1138,681.2082,0.3001,681.5084,0.3668,-275,0.45,275,0.6421,0;0.5;0,1,681.1089,1.0,773.0,-387.0,1,1
379,681.8752,-17956.7807,-17274.9056,17957.2809,682.3754,0.3001,682.6755,0.3668,-275,0.0088,275,0.2009,0;0.5;0,1,682.2843,1.0,774.0,-387.0,1,1
380,683.0423,-17957.9479,-17274.9056,17958.4481,683.5425,0.3001,683.8426,0.3668,-275,0.05,275,0.0582,0;0.5;0,1,683.4515,1.0,777.0,-387.0,1,1
381,684.2094,-17959.1150,-17274.9056,17959.8320,684.9264,0.3001,685.2265,0.3668,275,0.0088,-275,0.017,0;0.5;0,0,684.8269,0.0,-916.0,-395.0,1,1
382,685.5933,-17960.4989,-17274.9056,17960.9824,686.0769,0.3001,686.3770,0.3668,275,0,-275,0.0671,0;0.5;0,0,685.9858,0.0,-923.0,-406.0,1,1
383,686.7438,-17961.6494,-17274.9056,17962.8498,687.9443,0.3001,688.2444,0.3668,275,0.0167,-275,0.0177,0;0.5;0,0,687.8531,0.0,-931.0,-385.0,1,1
384,688.6112,-17963.5168,-17274.9056,17963.9336,689.0280,0.3001,689.3282,0.3668,-275,0,275,0.0235,0;0.5;0,1,688.9287,1.0,764.0,-397.0,1,1
385,689.6950,-17964.6005,-17274.9056,17965.5676,690.6620,0.3001,690.9622,0.3668,275,0.2,-275,1,0;0.5;0,0,690.5710,0.0,-932.0,-378.0,1,1
386,691.3290,-17966.2345,-17274.9056,17967.4684,692.5628,0.3001,692.8629,0.3668,-275,0,275,0.001,0;0.5;0,1,692.4633,1.0,785.0,-376.0,1,1
387,693.2297,-17968.1353,-17274.9056,17968.7355,693.8300,0.3001,694.1301,0.3668,-275,0.2,275,0.2671,0;0.5;0,1,693.7305,1.0,775.0,-388.0,1,1
388,694.4969,-17969.4025,-17274.9056,17970.3695,695.4640,0.3001,695.7641,0.3668,-275,0.0088,275,0.0098,0;0.5;0,1,695.3729,1.0,781.0,-384.0,1,1
389,696.1309,-17971.0365,-17274.9056,17972.0035,697.0980,0.3001,697.3981,0.3668,-275,0,275,0.0082,0;0.5;0,1,696.9986,1.0,766.0,-394.0,1,1
390,697.7649,-17972.6705,-17274.9056,17973.3541,698.4485,0.3001,698.7486,0.3668,275,0.2,-275,0.2235,0;0.5;0,0,698.3575,0.0,-920.0,-395.0,1,1
391,699.1154,-17974.0210,-17274.9056,17976.5887,701.6831,0.3001,701.9833,0.3668,275,0,-275,0.0029,0;0.5;0,0,701.5837,0.0,-903.0,-395.0,1,1
392,702.3501,-17977.2556,-17274.9056,17978.0059,703.1004,0.3001,703.4005,0.3668,-275,0.05,275,0.0582,0;0.5;0,1,703.0009,1.0,758.0,-393.0,1,1
393,703.7673,-17978.6729,-17274.9056,17980.3902,705.4847,0.3001,705.7848,0.3668,-275,0.0088,275,0.0098,0;0.5;0,1,705.3853,1.0,741.0,-404.0,1,1
394,706.1516,-17981.0572,-17274.9056,17981.6115,706.7060,0.2960,707.0019,0.3668,-275,0,275,0.0235,0;0.5;0,1,706.6108,1.0,759.0,-392.0,1,1
395,707.3688,-17982.2743,-17274.9056,17983.7249,708.8193,0.3001,709.1195,0.3668,275,0.05,-275,0.0735,0;0.5;0,0,708.7283,0.0,-904.0,-402.0,1,1
396,709.4863,-17984.3918,-17274.9056,17984.9754,710.0698,0.3001,710.3700,0.3668,-275,0.0088,275,0.0098,0;0.5;0,1,709.9704,1.0,766.0,-385.0,1,1
397,710.7368,-17985.6423,-17274.9056,17986.2926,711.3870,0.3001,711.6872,0.3668,-275,0.0167,275,0.0196,0;0.5;0,1,711.2879,1.0,766.0,-376.0,1,1
398,712.0540,-17986.9595,-17274.9056,17987.5931,712.6876,0.3001,712.9877,0.3668,275,0.2,-275,0.2235,1;0;0,0,712.5964,1.0,751.0,-396.0,1,0
399,713.3545,-17988.2601,-17274.9056,17988.7102,713.8047,0.3001,714.1048,0.3668,-275,0.2,275,0.2235,0;0.5;0,1,713.7053,1.0,785.0,-369.0,1,1
400,714.4716,-17989.3772,-17274.9056,17991.2613,716.3557,0.3001,716.6558,0.3668,275,0,-275,0.0082,0;0.5;0,0,716.2646,0.0,-909.0,-378.0,1,1
401,717.0226,-17991.9282,-17274.9056,17992.7452,717.8396,0.3001,718.1397,0.3668,275,0.0088,-275,0.0117,1;0;0,0,717.7486,1.0,778.0,-364.0,1,0
402,718.5066,-17993.4121,-17274.9056,17993.8956,718.9901,0.3001,719.2902,0.3668,-275,0.05,275,0.2421,0;0.5;0,1,718.8907,1.0,776.0,-369.0,1,1
403,719.6570,-17994.5626,-17274.9056,17995.1128,720.2072,0.3001,720.5074,0.3668,275,0.05,-275,0.0735,1;0;0,0,720.1079,1.0,774.0,-381.0,1,0
404,720.8742,-17995.7797,-17274.9056,17996.4133,721.5078,0.3001,721.8079,0.3668,275,0.2,-275,0.75,0;0.5;0,0,721.4167,0.0,-902.0,-391.0,1,1
405,722.1747,-17997.0803,-17274.9056,17997.7805,722.8750,0.3001,723.1751,0.3668,275,0.0088,-275,0.0117,1;0;0,0,722.7755,1.0,779.0,-373.0,1,0
406,723.5419,-17998.4475,-17274.9056,17999.2811,724.3756,0.3001,724.6757,0.3668,275,0,-275,0.0671,0;0.5;0,0,724.2761,0.0,-929.0,-380.0,1,1
407,725.0425,-17999.9481,-17274.9056,18000.5150,725.6094,0.3001,725.9095,0.3668,275,0.05,-275,0.1171,0;0.5;0,0,725.5184,0.0,-898.0,-403.0,1,1
408,726.2763,-18001.1819,-17274.9056,18001.8155,726.9099,0.3001,727.2101,0.3668,-275,0.45,275,0.4735,0;0.5;0,1,726.8188,1.0,759.0,-384.0,1,1
409,727.5769,-18002.4824,-17274.9056,18003.0993,728.1938,0.3001,728.4939,0.3668,275,0.05,-275,0.1171,0;0.5;0,0,728.1027,0.0,-901.0,-393.0,1,1
410,728.8607,-18003.7663,-17274.9056,18004.2331,729.3276,0.3001,729.6277,0.3668,275,0.05,-275,0.0582,1;0;0,0,729.2365,1.0,770.0,-382.0,1,0
411,729.9945,-18004.9001,-17274.9056,18005.4503,730.5447,0.3001,730.8448,0.3668,-275,0.05,275,0.2421,0;0.5;0,1,730.4537,1.0,771.0,-378.0,1,1
412,731.2117,-18006.1172,-17274.9056,18006.7175,731.8119,0.3001,732.1120,0.3668,275,0.0167,-275,0.0402,0;0.5;0,0,731.7126,0.0,-906.0,-399.0,1,1
413,732.4788,-18007.3844,-17274.9056,18007.9346,733.0291,0.3001,733.3292,0.3668,-275,0.45,275,1,0;0.5;0,1,732.9297,1.0,775.0,-376.0,1,1
414,733.6960,-18008.6016,-17274.9056,18009.3352,734.4296,0.3001,734.7297,0.3668,275,0.05,-275,0.0735,1;0;0,0,734.3303,1.0,777.0,-383.0,1,0
415,735.0966,-18010.0021,-17274.9056,18011.1526,736.2470,0.3001,736.5471,0.3668,275,0.0088,-275,0.0098,1;0;0,0,736.1561,1.0,780.0,-378.0,1,0
416,736.9140,-18011.8195,-17274.9056,18012.3864,737.4808,0.3001,737.7810,0.3668,275,0.0167,-275,0.0402,0;0.5;0,0,737.3815,0.0,-906.0,-406.0,1,1
417,738.1478,-18013.0533,-17274.9056,18013.5535,738.6480,0.3001,738.9481,0.3668,275,0.0088,-275,0.2009,0;0.5;0,0,738.5569,0.0,-906.0,-403.0,1,1
418,739.3149,-18014.2205,-17274.9056,18014.8541,739.9485,0.3001,740.2486,0.3668,275,0.0167,-275,0.0196,1;0;0,0,739.8493,1.0,759.0,-389.0,1,0
419,740.6154,-18015.5210,-17274.9056,18016.9549,742.0493,0.3001,742.3495,0.3668,275,0,-275,0.0029,1;0;0,0,741.9582,1.0,778.0,-378.0,1,0
420,742.7163,-18017.6218,-17274.9056,18018.1054,743.1998,0.3001,743.4999,0.3668,-275,0.2,275,0.2082,0;0.5;0,1,743.1088,1.0,773.0,-384.0,1,1
421,743.8667,-18018.7723,-17274.9056,18019.4893,744.5837,0.3001,744.8838,0.3668,275,0.0167,-275,0.0402,1;0;0,0,744.4842,1.0,775.0,-368.0,1,0
422,745.2506,-18020.1562,-17274.9056,18020.8065,745.9009,0.3001,746.2010,0.3668,-275,0.0167,275,0.0196,0;0.5;0,1,745.8098,1.0,769.0,-383.0,1,1
423,746.5678,-18021.4734,-17274.9056,18022.0570,747.1514,0.3001,747.4515,0.3668,-275,0.45,275,1,0;0.5;0,1,747.0520,1.0,781.0,-370.0,1,1
424,747.8183,-18022.7239,-17274.9056,18023.7076,748.8021,0.3001,749.1022,0.3668,275,0.2,-275,0.2082,1;0;0,0,748.7110,1.0,777.0,-378.0,1,0
425,749.4690,-18024.3746,-17274.9056,18025.0248,750.1193,0.3001,750.4194,0.3668,275,0.0167,-275,0.0402,1;0;0,0,750.0199,1.0,766.0,-382.0,1,0
426,750.7862,-18025.6918,-17274.9056,18027.3091,752.4035,0.3001,752.7036,0.3668,275,0.2,-275,0.3921,0;0.5;0,0,752.3125,0.0,-883.0,-398.0,1,1
427,753.0704,-18027.9760,-17274.9056,18029.1265,754.2209,0.3001,754.5210,0.3668,-275,0,275,0.0029,1;0;0,1,754.1298,0.0,-920.0,-383.0,1,0
428,754.8878,-18029.7934,-17274.9056,18030.7104,755.8049,0.3001,756.1050,0.3668,-275,0.0088,275,0.2009,0;0.5;0,1,755.7054,1.0,767.0,-388.0,1,1
429,756.4718,-18031.3774,-17274.9056,18031.9776,757.0720,0.3001,757.3722,0.3668,-275,0.05,275,0.1171,0;0.5;0,1,756.9726,1.0,767.0,-387.0,1,1
430,757.7390,-18032.6445,-17274.9056,18033.3282,758.4226,0.3001,758.7227,0.3668,275,0.2,-275,0.2082,1;0;0,0,758.3316,1.0,765.0,-388.0,1,0
431,759.0895,-18033.9951,-17274.9056,18034.5286,759.6231,0.3001,759.9232,0.3668,-275,0.05,275,0.6,0;0.5;0,1,759.5236,1.0,760.0,-391.0,1,1
432,760.2900,-18035.1956,-17274.9056,18035.8625,760.9569,0.3001,761.2571,0.3668,275,0.0167,-275,0.0402,0;0.5;0,0,760.8577,0.0,-890.0,-402.0,1,1
433,761.6239,-18036.5294,-17274.9056,18037.0463,762.1407,0.3001,762.4409,0.3668,275,0.45,-275,0.4582,1;0;0,0,762.0496,1.0,767.0,-388.0,1,0
434,762.8077,-18037.7132,-17274.9056,18038.4135,763.5080,0.3001,763.8081,0.3668,275,0.45,-275,0.5171,1;0;0,0,763.4168,1.0,779.0,-378.0,1,0
435,764.1749,-18039.0805,-17274.9056,18040.4477,765.5421,0.3001,765.8422,0.3668,-275,0,275,0.001,0;0.5;0,1,765.4510,1.0,799.0,-362.0,1,1
436,766.2090,-18041.1146,-17274.9056,18041.7315,766.8260,0.3001,767.1261,0.3668,275,0.0167,-275,0.0177,1;0;0,0,766.7265,1.0,778.0,-378.0,1,0
437,767.4929,-18042.3985,-17274.9056,18043.1654,768.2599,0.3001,768.5600,0.3668,275,0.0167,-275,0.0177,1;0;0,0,768.1688,1.0,778.0,-379.0,1,0
438,768.9268,-18043.8324,-17274.9056,18044.5160,769.6104,0.3001,769.9105,0.3668,275,0.2,-275,0.2671,0;0.5;0,0,769.5194,0.0,-889.0,-378.0,1,1
439,770.2773,-18045.1829,-17274.9056,18045.6998,770.7942,0.3001,771.0943,0.3668,275,0.45,-275,1,0;0.5;0,0,770.6948,0.0,-887.0,-393.0,1,1
440,771.4612,-18046.3667,-17274.9056,18046.8502,771.9447,0.3001,772.2448,0.3668,275,0.2,-275,1,0;0.5;0,0,771.8536,0.0,-902.0,-379.0,1,1
441,772.6116,-18047.5172,-17274.9056,18048.5676,773.6620,0.3001,773.9622,0.3668,275,0,-275,0.001,1;0;0,0,773.5626,1.0,780.0,-377.0,1,0
442,774.3290,-18049.2345,-17274.9056,18049.8681,774.9626,0.3001,775.2627,0.3668,275,0,-275,0.0029,0;0.5;0,0,774.8632,0.0,-892.0,-369.0,1,1
443,775.6295,-18050.5351,-17274.9056,18051.1686,776.2631,0.3001,776.5632,0.3668,275,0.0088,-275,0.0323,0;0.5;0,0,776.1720,0.0,-904.0,-379.0,1,1
444,776.9300,-18051.8356,-17274.9056,18052.5359,777.6303,0.3001,777.9304,0.3668,-275,0.2,275,0.2082,0;0.5;0,1,777.5392,1.0,778.0,-379.0,1,1
445,778.2972,-18053.2028,-17274.9056,18053.8030,778.8975,0.3001,779.1976,0.3668,275,0.0088,-275,0.0117,1;0;0,0,778.7981,1.0,773.0,-388.0,1,0
446,779.5644,-18054.4700,-17274.9056,18055.2203,780.3147,0.3001,780.6148,0.3668,275,0.0167,-275,0.0249,0;0.5;0,0,780.2153,0.0,-907.0,-373.0,1,1
447,780.9816,-18055.8872,-17274.9056,18056.8042,781.8987,0.3001,782.1988,0.3668,275,0.0088,-275,0.0098,1;0;0,0,781.8076,1.0,799.0,-364.0,1,0
448,782.5656,-18057.4712,-17274.9056,18057.9881,783.0825,0.3001,783.3826,0.3668,-275,0.45,275,1,0;0.5;0,1,782.9914,1.0,798.0,-362.0,1,1
449,783.7494,-18058.6550,-17274.9056,18059.5387,784.6331,0.3001,784.9332,0.3668,275,0,-275,0.0235,0;0.5;0,0,784.5421,0.0,-912.0,-369.0,1,1
450,785.3000,-18060.2056,-17274.9056,18060.7225,785.8169,0.3001,786.1170,0.3668,-275,0,275,0.1921,0;0.5;0,1,785.7175,1.0,793.0,-367.0,1,1
451,786.4839,-18061.3894,-17274.9056,18062.1731,787.2675,0.3001,787.5676,0.3668,-275,0.0167,275,0.0177,0;0.5;0,1,787.1681,1.0,812.0,-350.0,1,1
452,787.9344,-18062.8400,-17274.9056,18063.9071,789.0015,0.3001,789.3016,0.3668,275,0,-275,0.0235,0;0.5;0,0,788.9104,0.0,-916.0,-370.0,1,1
453,789.6685,-18064.5740,-17274.9056,18065.2743,790.3687,0.3001,790.6689,0.3668,275,0.05,-275,0.0735,0;0.5;0,0,790.2777,0.0,-914.0,-374.0,1,1
454,791.0357,-18065.9412,-17274.9056,18066.6082,791.7026,0.3001,792.0027,0.3668,-275,0.05,275,0.0529,0;0.5;0,1,791.6032,1.0,814.0,-345.0,1,1
455,792.3695,-18067.2751,-17274.9056,18068.3089,793.4033,0.3001,793.7034,0.3668,-275,0.45,275,1,0;0.5;0,1,793.3039,1.0,796.0,-359.0,1,1
456,794.0702,-18068.9758,-17274.9056,18069.4260,794.5204,0.3001,794.8205,0.3668,-275,0,275,0.1921,0;0.5;0,1,794.4211,1.0,804.0,-359.0,1,1
457,795.1873,-18070.0929,-17274.9056,18070.6598,795.7542,0.3001,796.0544,0.3668,275,0.05,-275,0.6,0;0.5;0,0,795.6548,0.0,-894.0,-382.0,1,1
458,796.4212,-18071.3267,-17274.9056,18071.7769,796.8714,0.3001,797.1715,0.3668,-275,0.05,275,0.0582,0;0.5;0,1,796.7803,1.0,808.0,-353.0,1,1
459,797.5383,-18072.4439,-17274.9056,18075.4117,800.5061,0.3001,800.8063,0.3668,-275,0,275,0.001,0;0.5;0,1,800.4067,1.0,783.0,-373.0,1,1
460,801.1731,-18076.0786,-17274.9056,18076.6956,801.7900,0.3001,802.0901,0.3668,-275,0.0088,275,0.0323,0;0.5;0,1,801.6989,1.0,788.0,-371.0,1,1
461,802.4569,-18077.3625,-17274.9056,18077.9127,803.0072,0.3001,803.3073,0.3668,275,0.45,-275,1,0;0.5;0,0,802.9077,0.0,-900.0,-374.0,1,1
462,803.6741,-18078.5796,-17274.9056,18079.0465,804.1409,0.3001,804.4411,0.3668,275,0.0088,-275,0.2009,0;0.5;0,0,804.0499,0.0,-903.0,-384.0,1,1
463,804.8079,-18079.7134,-17274.9056,18080.1970,805.2914,0.3001,805.5915,0.3668,-275,0,275,0.1921,0;0.5;0,1,805.2004,1.0,795.0,-366.0,1,1
464,805.9583,-18080.8639,-17274.9056,18081.3474,806.4419,0.3001,806.7420,0.3668,275,0.2,-275,0.3921,0;0.5;0,0,806.3509,0.0,-897.0,-383.0,1,1
465,807.1088,-18082.0144,-17274.9056,18082.5813,807.6757,0.3001,807.9758,0.3668,275,0.45,-275,0.4735,1;0;0,0,807.5847,1.0,793.0,-372.0,1,0
466,808.3426,-18083.2482,-17274.9056,18083.7484,808.8428,0.3001,809.1429,0.3668,-275,0.0167,275,0.2088,0;0.5;0,1,808.7517,1.0,797.0,-365.0,1,1
467,809.5098,-18084.4153,-17274.9056,18084.9655,810.0600,0.3001,810.3601,0.3668,275,0.05,-275,0.1171,0;0.5;0,0,809.9689,0.0,-912.0,-369.0,1,1
468,810.7269,-18085.6325,-17274.9056,18086.1494,811.2438,0.3001,811.5439,0.3668,275,0.05,-275,0.2421,0;0.5;0,0,811.1528,0.0,-907.0,-372.0,1,1
469,811.9107,-18086.8163,-17274.9056,18087.3165,812.4109,0.3001,812.7110,0.3668,-275,0.2,275,0.3921,0;0.5;0,1,812.3115,1.0,804.0,-360.0,1,1
470,813.0779,-18087.9834,-17274.9056,18088.5503,813.6448,0.3001,813.9449,0.3668,275,0,-275,0.0671,0;0.5;0,0,813.5454,0.0,-913.0,-371.0,1,1
471,814.3117,-18089.2173,-17274.9056,18089.7508,814.8452,0.3001,815.1454,0.3668,-275,0,275,0.001,0;0.5;0,1,814.7541,1.0,783.0,-380.0,1,1
472,815.5122,-18090.4177,-17274.9056,18092.0851,817.1795,0.3001,817.4796,0.3668,-275,0.0088,275,0.0098,0;0.5;0,1,817.0884,1.0,822.0,-347.0,1,1
473,817.8464,-18092.7520,-17274.9056,18093.3522,818.4467,0.3001,818.7468,0.3668,275,0.45,-275,0.4582,1;0;0,0,818.3556,1.0,824.0,-351.0,1,0
474,819.1136,-18094.0192,-17274.9056,18094.8195,819.9139,0.3001,820.2141,0.3668,275,0.05,-275,0.0529,1;0;0,0,819.8145,1.0,818.0,-348.0,1,0
475,820.5809,-18095.4864,-17274.9056,18096.0367,821.1311,0.3001,821.4312,0.3668,-275,0.0167,275,0.0177,0;0.5;0,1,821.0402,1.0,811.0,-352.0,1,1
476,821.7980,-18096.7036,-17274.9056,18097.2705,822.3649,0.3001,822.6650,0.3668,-275,0.2,275,0.75,0;0.5;0,1,822.2739,1.0,810.0,-352.0,1,1
477,823.0319,-18097.9374,-17274.9056,18099.3547,824.4491,0.3001,824.7492,0.3668,-275,0.0167,275,0.0249,1;0;0,1,824.3496,0.0,-907.0,-357.0,1,0
478,825.1160,-18100.0216,-17274.9056,18101.4555,826.5499,0.3001,826.8501,0.3668,275,0.0088,-275,0.017,0;0.5;0,0,826.4505,0.0,-890.0,-382.0,1,1
479,827.2169,-18102.1224,-17274.9056,18102.8561,827.9505,0.3001,828.2506,0.3668,275,0.45,-275,0.6421,0;0.5;0,0,827.8510,0.0,-902.0,-372.0,1,1
480,828.6174,-18103.5230,-17274.9056,18104.1733,829.2677,0.3001,829.5678,0.3668,-275,0.0167,275,0.0838,0;0.5;0,1,829.1765,1.0,792.0,-373.0,1,1
481,829.9346,-18104.8402,-17274.9056,18105.7572,830.8517,0.3001,831.1518,0.3668,275,0.0088,-275,0.0098,1;0;0,0,830.7606,1.0,787.0,-375.0,1,0
482,831.5186,-18106.4242,-17274.9056,18107.0577,832.1522,0.3001,832.4523,0.3668,275,0.05,-275,0.2421,0;0.5;0,0,832.0526,0.0,-889.0,-394.0,1,1
483,832.8191,-18107.7247,-17274.9056,18108.3583,833.4527,0.3001,833.7528,0.3668,-275,0.0167,275,0.0838,0;0.5;0,1,833.3617,1.0,791.0,-361.0,1,1
484,834.1196,-18109.0252,-17274.9056,18109.5587,834.6532,0.3001,834.9533,0.3668,-275,0,275,0.0671,0;0.5;0,1,834.5621,1.0,807.0,-355.0,1,1
485,835.3201,-18110.2257,-17274.9056,18110.9426,836.0371,0.3001,836.3372,0.3668,275,0.05,-275,0.0735,1;0;0,0,835.9377,1.0,795.0,-367.0,1,0
486,836.7040,-18111.6096,-17274.9056,18112.4599,837.5543,0.3001,837.8545,0.3668,275,0.45,-275,0.4735,1;0;0,0,837.4633,1.0,796.0,-366.0,1,0
487,838.2213,-18113.1268,-17274.9056,18113.6437,838.7382,0.3001,839.0383,0.3668,-275,0.2,275,0.2671,0;0.5;0,1,838.6471,1.0,801.0,-363.0,1,1
488,839.4051,-18114.3107,-17274.9056,18115.5278,840.6222,0.3001,840.9224,0.3668,275,0.05,-275,0.0582,1;0;0,0,840.5313,1.0,797.0,-359.0,1,0
489,841.2892,-18116.1947,-17274.9056,18116.7616,841.8561,0.3001,842.1562,0.3668,275,0.2,-275,0.75,0;0.5;0,0,841.7566,0.0,-883.0,-388.0,1,1
490,842.5230,-18117.4286,-17274.9056,18118.5624,843.6568,0.3001,843.9569,0.3668,275,0,-275,0.001,1;0;0,0,843.5657,1.0,797.0,-368.0,1,0
491,844.3237,-18119.2293,-17274.9056,18119.9129,845.0073,0.3001,845.3075,0.3668,275,0.45,-275,0.6421,0;0.5;0,0,844.9163,0.0,-913.0,-364.0,1,1
492,845.6743,-18120.5798,-17274.9056,18121.2134,846.3079,0.3001,846.6080,0.3668,-275,0.0167,275,0.0249,0;0.5;0,1,846.2085,1.0,798.0,-365.0,1,1
493,846.9748,-18121.8804,-17274.9056,18122.6640,847.7584,0.3001,848.0586,0.3668,-275,0.0167,275,0.0196,0;0.5;0,1,847.6590,1.0,781.0,-378.0,1,1
494,848.4254,-18123.3309,-17274.9056,18123.8978,848.9923,0.3001,849.2924,0.3668,-275,0.2,275,0.3921,0;0.5;0,1,848.8929,1.0,794.0,-366.0,1,1
495,849.6592,-18124.5648,-17274.9056,18125.2484,850.3428,0.3001,850.6429,0.3668,-275,0,275,0.001,0;0.5;0,1,850.2517,1.0,792.0,-369.0,1,1
496,851.0097,-18125.9153,-17274.9056,18126.7156,851.8101,0.3001,852.1102,0.3668,275,0.2,-275,0.2082,1;0;0,0,851.7107,1.0,800.0,-357.0,1,0
497,852.4770,-18127.3826,-17274.9056,18128.0328,853.1273,0.3001,853.4274,0.3668,275,0.0088,-275,0.0323,0;0.5;0,0,853.0278,0.0,-896.0,-378.0,1,1
498,853.7942,-18128.6998,-17274.9056,18129.2833,854.3778,0.3001,854.6779,0.3668,275,0.45,-275,1,0;0.5;0,0,854.2866,0.0,-889.0,-372.0,1,1
499,855.0447,-18129.9503,-17274.9056,18130.4171,855.5116,0.3001,855.8117,0.3668,275,0.0088,-275,0.2009,0;0.5;0,0,855.4204,0.0,-920.0,-372.0,1,1
500,856.1785,-18131.0840,-17274.9056,18131.8677,856.9621,0.3001,857.2623,0.3668,-275,0.0088,275,0.017,0;0.5;0,1,856.8627,1.0,783.0,-373.0,1,1
501,857.6291,-18132.5346,-17274.9056,18133.1682,858.2627,0.3001,858.5628,0.3668,275,0.45,-275,0.4582,1;0;0,0,858.1632,1.0,792.0,-370.0,1,0
502,858.9296,-18133.8352,-17274.9056,18134.4354,859.5298,0.3001,859.8300,0.3668,-275,0.0167,275,0.0402,0;0.5;0,1,859.4389,1.0,784.0,-372.0,1,1
503,860.1968,-18135.1023,-17274.9056,18135.8026,860.8970,0.3001,861.1972,0.3668,275,0.0167,-275,0.0196,1;0;0,0,860.8060,1.0,776.0,-384.0,1,0
504,861.5640,-18136.4695,-17274.9056,18137.0364,862.1309,0.3001,862.4310,0.3668,-275,0.2,275,0.3921,0;0.5;0,1,862.0398,1.0,806.0,-363.0,1,1
505,862.7978,-18137.7034,-17274.9056,18138.4703,863.5648,0.3001,863.8649,0.3668,275,0.0088,-275,0.0323,0;0.5;0,0,863.4738,0.0,-884.0,-364.0,1,1
506,864.2317,-18139.1373,-17274.9056,18139.7375,864.8320,0.3001,865.1321,0.3668,-275,0.45,275,0.4582,0;0.5;0,1,864.7411,1.0,780.0,-373.0,1,1
507,865.4989,-18140.4045,-17274.9056,18141.2715,866.3659,0.3001,866.6660,0.3668,275,0.0088,-275,0.0117,1;0;0,0,866.2748,1.0,783.0,-375.0,1,0
508,867.0328,-18141.9384,-17274.9056,18143.5224,868.6168,0.3001,868.9169,0.3668,-275,0,275,0.001,0;0.5;0,1,868.5174,1.0,814.0,-345.0,1,1
509,869.2837,-18144.1893,-17274.9056,18144.8062,869.9007,0.3001,870.2008,0.3668,-275,0.05,275,0.0735,0;0.5;0,1,869.8013,1.0,809.0,-349.0,1,1
510,870.5676,-18145.4732,-17274.9056,18146.0234,871.1178,0.3001,871.4179,0.3668,-275,0.0088,275,0.0323,0;0.5;0,1,871.0267,1.0,805.0,-356.0,1,1
511,871.7847,-18146.6903,-17274.9056,18147.2239,872.3183,0.3001,872.6184,0.3668,275,0.0088,-275,0.0759,0;0.5;0,0,872.2189,0.0,-889.0,-392.0,1,1
512,872.9852,-18147.8908,-17274.9056,18149.4081,874.5025,0.3001,874.8026,0.3668,-275,0,275,0.0029,0;0.5;0,1,874.4114,1.0,825.0,-359.0,1,1
513,875.1694,-18150.0750,-17274.9056,18150.5919,875.6863,0.3001,875.9864,0.3668,-275,0.2,275,0.2235,0;0.5;0,1,875.5869,1.0,807.0,-365.0,1,1
514,876.3532,-18151.2588,-17274.9056,18151.7757,876.8701,0.3001,877.1702,0.3668,-275,0.05,275,0.2421,0;0.5;0,1,876.7790,1.0,794.0,-371.0,1,1
515,877.5371,-18152.4426,-17274.9056,18152.9928,878.0873,0.3001,878.3874,0.3668,275,0.05,-275,0.2421,0;0.5;0,0,877.9963,0.0,-868.0,-386.0,1,1
516,878.7542,-18153.6598,-17274.9056,18154.1433,879.2377,0.3001,879.5379,0.3668,-275,0.2,275,0.75,0;0.5;0,1,879.1467,1.0,798.0,-371.0,1,1
517,879.9047,-18154.8102,-17274.9056,18155.2604,880.3548,0.3001,880.6550,0.3668,-275,0.05,275,0.0735,1;0;0,1,880.2639,0.0,-898.0,-373.0,1,0
518,881.0218,-18155.9273,-17274.9056,18156.6443,881.7387,0.3001,882.0389,0.3668,275,0,-275,0.001,1;0;0,0,881.6477,1.0,788.0,-386.0,1,0
519,882.4057,-18157.3112,-17274.9056,18157.7281,882.8225,0.3001,883.1226,0.3668,-275,0.0167,275,0.2088,0;0.5;0,1,882.7231,1.0,802.0,-376.0,1,1
520,883.4894,-18158.3950,-17274.9056,18158.9786,884.0730,0.3001,884.3731,0.3668,-275,0.45,275,0.5171,0;0.5;0,1,883.9736,1.0,788.0,-383.0,1,1
521,884.7399,-18159.6455,-17274.9056,18160.2624,885.3569,0.3001,885.6570,0.3668,275,0.2,-275,0.3921,0;0.5;0,0,885.2659,0.0,-883.0,-378.0,1,1
522,886.0238,-18160.9294,-17274.9056,18161.3795,886.4740,0.3001,886.7741,0.3668,-275,0.0167,275,0.2088,0;0.5;0,1,886.3746,1.0,792.0,-383.0,1,1
523,887.1409,-18162.0465,-17274.9056,18162.6634,887.7578,0.3001,888.0579,0.3668,-275,0.45,275,0.4735,0;0.5;0,1,887.6585,1.0,798.0,-378.0,1,1
524,888.4248,-18163.3303,-17274.9056,18164.0806,889.1751,0.3001,889.4752,0.3668,275,0,-275,0.001,1;0;0,0,889.0757,1.0,796.0,-378.0,1,0
525,889.8420,-18164.7476,-17274.9056,18165.3311,890.4256,0.3001,890.7257,0.3668,-275,0.0088,275,0.0759,0;0.5;0,1,890.3261,1.0,797.0,-377.0,1,1
526,891.0925,-18165.9981,-17274.9056,18166.4149,891.5093,0.3001,891.8094,0.3668,-275,0.0167,275,0.2088,0;0.5;0,1,891.4098,1.0,804.0,-369.0,1,1
527,892.1763,-18167.0818,-17274.9056,18167.8321,892.9266,0.3001,893.2267,0.3668,275,0.0167,-275,0.0196,1;0;0,0,892.8356,1.0,798.0,-374.0,1,0
528,893.5935,-18168.4991,-17274.9056,18168.9993,894.0937,0.3001,894.3938,0.3668,-275,0.0167,275,0.0402,0;0.5;0,1,893.9943,1.0,812.0,-364.0,1,1
529,894.7606,-18169.6662,-17274.9056,18170.1831,895.2775,0.3001,895.5776,0.3668,-275,0.05,275,0.6,0;0.5;0,1,895.1780,1.0,816.0,-364.0,1,1
530,895.9444,-18170.8500,-17274.9056,18171.7170,896.8114,0.3001,897.1116,0.3668,-275,0.2,275,0.2082,0;0.5;0,1,896.7204,1.0,814.0,-361.0,1,1
531,897.4784,-18172.3839,-17274.9056,18172.9175,898.0119,0.3001,898.3121,0.3668,275,0,-275,0.001,1;0;0,0,897.9209,1.0,809.0,-363.0,1,0
532,898.6789,-18173.5844,-17274.9056,18174.0680,899.1624,0.3001,899.4625,0.3668,275,0,-275,0.0235,0;0.5;0,0,899.0630,0.0,-877.0,-393.0,1,1
533,899.8293,-18174.7349,-17274.9056,18175.2851,900.3795,0.3001,900.6797,0.3668,-275,0.05,275,0.1171,0;0.5;0,1,900.2802,1.0,809.0,-369.0,1,1
534,901.0465,-18175.9520,-17274.9056,18176.7023,901.7968,0.3001,902.0969,0.3668,275,0.2,-275,0.2235,1;0;0,0,901.6974,1.0,794.0,-380.0,1,0
535,902.4637,-18177.3693,-17274.9056,18177.9362,903.0306,0.3001,903.3307,0.3668,275,0.0088,-275,0.0759,0;0.5;0,0,902.9396,0.0,-888.0,-383.0,1,1
536,903.6975,-18178.6031,-17274.9056,18179.0199,904.1144,0.3001,904.4145,0.3668,275,0,-275,0.1921,0;0.5;0,0,904.0150,0.0,-886.0,-397.0,1,1
537,904.7813,-18179.6869,-17274.9056,18180.1037,905.1981,0.3001,905.4983,0.3668,-275,0.0167,275,0.2088,0;0.5;0,1,905.1071,1.0,800.0,-378.0,1,1
538,905.8651,-18180.7706,-17274.9056,18181.3375,906.4320,0.3001,906.7321,0.3668,-275,0.05,275,0.0735,0;0.5;0,1,906.3325,1.0,807.0,-379.0,1,1
539,907.0989,-18182.0045,-17274.9056,18183.6718,908.7662,0.3001,909.0664,0.3668,-275,0.0167,275,0.0196,1;0;0,1,908.6752,0.0,-886.0,-372.0,1,0
540,909.4332,-18184.3387,-17274.9056,18185.0724,910.1668,0.3001,910.4669,0.3668,275,0.45,-275,0.4735,1;0;0,0,910.0759,1.0,799.0,-376.0,1,0
541,910.8337,-18185.7393,-17274.9056,18186.4229,911.5173,0.3001,911.8175,0.3668,275,0.45,-275,0.4582,1;0;0,0,911.4180,1.0,792.0,-384.0,1,0
542,912.1843,-18187.0898,-17274.9056,18187.7234,912.8179,0.3001,913.1180,0.3668,275,0.05,-275,0.0582,1;0;0,0,912.7269,1.0,799.0,-380.0,1,0
543,913.4848,-18188.3904,-17274.9056,18189.0906,914.1851,0.3001,914.4852,0.3668,-275,0.2,275,1,0;0.5;0,1,914.0857,1.0,804.0,-374.0,1,1
544,914.8520,-18189.7576,-17274.9056,18190.3912,915.4856,0.3001,915.7857,0.3668,-275,0.05,275,0.0582,0;0.5;0,1,915.3863,1.0,803.0,-373.0,1,1
545,916.1525,-18191.0581,-17274.9056,18192.2419,917.3363,0.3001,917.6365,0.3668,275,0.0167,-275,0.0177,1;0;0,0,917.2453,1.0,799.0,-378.0,1,0
546,918.0033,-18192.9088,-17274.9056,18193.5424,918.6369,0.3001,918.9370,0.3668,275,0.45,-275,0.4582,1;0;0,0,918.5458,1.0,799.0,-379.0,1,0
547,919.3038,-18194.2094,-17274.9056,18194.8430,919.9374,0.3001,920.2375,0.3668,275,0.2,-275,0.2671,1;0;0,0,919.8463,1.0,806.0,-373.0,1,0
548,920.6043,-18195.5099,-17274.9056,18196.0768,921.1712,0.3001,921.4713,0.3668,275,0.05,-275,0.6,0;0.5;0,0,921.0802,0.0,-880.0,-393.0,1,1
549,921.8382,-18196.7437,-17274.9056,18197.5774,922.6718,0.3001,922.9719,0.3668,-275,0.0088,275,0.017,0;0.5;0,1,922.5809,1.0,826.0,-356.0,1,1
550,923.3388,-18198.2443,-17274.9056,18199.0446,924.1391,0.3001,924.4392,0.3668,-275,0.0167,275,0.0196,0;0.5;0,1,924.0481,1.0,796.0,-388.0,1,1
551,924.8060,-18199.7116,-17274.9056,18200.8454,925.9398,0.3001,926.2399,0.3668,275,0.0088,-275,0.0759,0;0.5;0,0,925.8405,0.0,-900.0,-381.0,1,1
552,926.6067,-18201.5123,-17274.9056,18203.6298,928.7242,0.3001,929.0244,0.3668,-275,0.0088,275,0.017,0;0.5;0,1,928.6248,1.0,802.0,-385.0,1,1
553,929.3912,-18204.2967,-17274.9056,18204.8470,929.9414,0.3001,930.2415,0.3668,275,0,-275,0.1921,0;0.5;0,0,929.8420,0.0,-893.0,-388.0,1,1
554,930.6083,-18205.5139,-17274.9056,18206.0975,931.1919,0.3001,931.4920,0.3668,-275,0.05,275,0.2421,0;0.5;0,1,931.1010,1.0,786.0,-393.0,1,1
555,931.8588,-18206.7644,-17274.9056,18207.4480,932.5424,0.3001,932.8426,0.3668,-275,0.05,275,0.0529,1;0;0,1,932.4513,0.0,-882.0,-396.0,1,0
556,933.2094,-18208.1149,-17274.9056,18208.6652,933.7596,0.3001,934.0597,0.3668,275,0.45,-275,0.6421,0;0.5;0,0,933.6602,0.0,-889.0,-382.0,1,1
557,934.4265,-18209.3321,-17274.9056,18209.8490,934.9434,0.3001,935.2435,0.3668,275,0.05,-275,0.1171,0;0.5;0,0,934.8522,0.0,-908.0,-373.0,1,1
558,935.6103,-18210.5159,-17274.9056,18210.9994,936.0939,0.3001,936.3940,0.3668,-275,0.0088,275,0.2009,0;0.5;0,1,936.0028,1.0,798.0,-391.0,1,1
559,936.7608,-18211.6664,-17274.9056,18212.2166,937.3110,0.3001,937.6111,0.3668,275,0.0088,-275,0.0117,0;0.5;0,0,937.2116,0.0,-927.0,-361.0,1,1
560,937.9780,-18212.8835,-17274.9056,18213.4171,938.5115,0.3001,938.8116,0.3668,275,0.0088,-275,0.017,0;0.5;0,0,938.4120,0.0,-902.0,-378.0,1,1