trial,presentation_startTime,presentation_duration,prefeedback_startTime,prefeedback_duration,feedback_startTime,feedback_duration,fixation_startTime,fixation_duration,presentation_object1_positionX,presentation_object1_contrastValue,presentation_object2_positionX,presentation_object2_contrastValue,feedback_object1_color,trialValue,presentation_responseTime,presentation_response,presentation_touchPositionX,presentation_touchPositionY,respondedInTime,correct
1,56.9148,-861.9926,-805.0778,865.3939,60.3162,0.3001,60.6163,0.3668,-275,0.2,275,0.75,0;0.5;0,1,60.2167,1.0,1080.0,-497.0,1,1
2,60.9831,-866.0609,-805.0778,867.8449,62.7672,0.3001,63.0673,0.3668,-275,0.0167,275,0.0838,0;0.5;0,1,62.6762,1.0,1060.0,-484.0,1,1
3,63.4341,-868.5119,-805.0778,871.0462,65.9685,0.3001,66.2686,0.3668,275,0,-275,0.1921,1;0;0,0,65.8691,1.0,1024.0,-458.0,1,0
4,66.6354,-871.7132,-805.0778,876.1483,71.0705,0.3001,71.3707,0.3668,275,0.45,-275,0.5171,1;0;0,0,70.9795,1.0,1058.0,-471.0,1,0
5,71.7375,-876.8153,-805.0778,878.3159,73.2381,0.3001,73.5382,0.3668,-275,0.0167,275,0.0249,1;0;0,1,73.1471,0.0,-1103.0,-532.0,1,0
6,73.9050,-878.9828,-805.0778,880.3167,75.2389,0.3001,75.5390,0.3668,-275,0.0167,275,0.0196,1;0;0,1,75.1479,0.0,-1043.0,-503.0,1,0
7,75.9058,-880.9836,-805.0778,882.5509,77.4732,0.3001,77.7733,0.3668,-275,0.0167,275,0.0838,0;0.5;0,1,77.3737,1.0,1076.0,-433.0,1,1
8,78.1401,-883.2179,-805.0778,884.8685,79.7908,0.3001,80.0909,0.3668,-275,0.05,275,0.6,0;0.5;0,1,79.6997,1.0,1043.0,-474.0,1,1
9,80.4577,-885.5355,-805.0778,887.8197,82.7420,0.3001,83.0421,0.3668,-275,0.45,275,0.5171,0;0.5;0,1,82.6425,1.0,1045.0,-466.0,1,1
10,83.4089,-888.4867,-805.0778,890.2415,85.1638,0.3001,85.4639,0.3668,-275,0.2,275,0.3921,0;0.5;0,1,85.0602,1.0,1035.0,-482.0,1,1
11,85.8307,-890.9085,-805.0778,892.2382,87.1604,0.3001,87.4605,0.3668,-275,0.45,275,0.6421,0;0.5;0,1,87.0610,1.0,1038.0,-498.0,1,1
12,87.8274,-892.9051,-805.0778,894.8559,89.7782,0.3001,90.0783,0.3668,275,0.0167,-275,0.0402,1;0;0,0,89.6872,1.0,1065.0,-501.0,1,0
13,90.4451,-895.5229,-805.0778,897.2569,92.1791,0.3001,92.4792,0.3668,275,0.0088,-275,0.2009,1;0;0,0,92.0797,1.0,1019.0,-488.0,1,0
14,92.8461,-897.9238,-805.0778,899.1910,94.1132,0.3001,94.4134,0.3668,-275,0.45,275,0.4735,0;0.5;0,1,94.0221,1.0,995.0,-487.0,1,1
15,94.7802,-899.8580,-805.0778,901.2252,96.1474,0.3001,96.4475,0.3668,275,0.2,-275,0.2082,1;0;0,0,96.0564,1.0,999.0,-496.0,1,0
16,96.8143,-901.8921,-805.0778,903.5428,98.4650,0.3001,98.7651,0.3668,-275,0,275,0.0235,0;0.5;0,1,98.3655,1.0,979.0,-506.0,1,1
17,99.1320,-904.2097,-805.0778,906.8108,101.7330,0.3001,102.0331,0.3668,-275,0.05,275,0.0582,1;0;0,1,101.6420,0.0,-1042.0,-467.0,1,0
18,102.3999,-907.4777,-805.0778,908.7616,103.6838,0.3001,103.9839,0.3668,275,0.05,-275,0.1171,0;0.5;0,0,103.5844,0.0,-998.0,-445.0,1,1
19,104.3507,-909.4285,-805.0778,910.6290,105.5512,0.3001,105.8513,0.3668,275,0.2,-275,1,0;0.5;0,0,105.4602,0.0,-986.0,-451.0,1,1
20,106.2182,-911.2959,-805.0778,914.1971,109.1193,0.3001,109.4195,0.3668,-275,0.0167,275,0.0249,1;0;0,1,109.0282,0.0,-980.0,-479.0,1,0
21,109.7863,-914.8640,-805.0778,916.7982,111.7204,0.3001,112.0205,0.3668,-275,0.0088,275,0.0759,1;0;0,1,111.6293,0.0,-1009.0,-428.0,1,0
22,112.3873,-917.4651,-805.0778,918.6156,113.5378,0.3001,113.8379,0.3668,-275,0.0167,275,0.0249,0;0.5;0,1,113.4467,1.0,1042.0,-433.0,1,1
23,114.2047,-919.2825,-805.0778,920.6664,115.5886,0.3001,115.8888,0.3668,-275,0.0088,275,0.0759,0;0.5;0,1,115.4893,1.0,1042.0,-417.0,1,1
24,116.2556,-921.3333,-805.0778,922.7673,117.6895,0.3001,117.9896,0.3668,-275,0.0088,275,0.0323,0;0.5;0,1,117.5985,1.0,1028.0,-471.0,1,1
25,118.3564,-923.4342,-805.0778,925.0348,119.9571,0.3001,120.2572,0.3668,275,0.2,-275,0.2082,1;0;0,0,119.8577,1.0,1012.0,-479.0,1,0
26,120.6240,-925.7018,-805.0778,927.0190,121.9412,0.3001,122.2413,0.3668,-275,0.0167,275,0.0196,0;0.5;0,1,121.8418,1.0,994.0,-543.0,1,1
27,122.6082,-927.6859,-805.0778,928.6697,123.5919,0.3001,123.8920,0.3668,275,0.0167,-275,0.0249,0;0.5;0,0,123.4925,0.0,-1083.0,-341.0,1,1
28,124.2588,-929.3366,-805.0778,930.5204,125.4426,0.3001,125.7428,0.3668,-275,0.05,275,0.1171,1;0;0,1,125.3432,0.0,-1032.0,-378.0,1,0
29,126.1096,-931.1873,-805.0778,932.2044,127.1267,0.3001,127.4268,0.3668,275,0.2,-275,0.75,0;0.5;0,0,127.0271,0.0,-1026.0,-407.0,1,1
30,127.7936,-932.8714,-805.0778,934.7721,129.6944,0.3001,129.9945,0.3668,275,0.0088,-275,0.0323,0;0.5;0,0,129.5951,0.0,-1036.0,-371.0,1,1
31,130.3613,-935.4391,-805.0778,936.6062,131.5284,0.3001,131.8286,0.3668,275,0.0167,-275,0.0249,0;0.5;0,0,131.4374,0.0,-1029.0,-387.0,1,1
32,132.1954,-937.2731,-805.0778,938.4236,133.3459,0.3001,133.6460,0.3668,275,0.05,-275,0.2421,1;0;0,0,133.2464,1.0,985.0,-440.0,1,0
33,134.0128,-939.0906,-805.0778,940.6078,135.5301,0.3001,135.8302,0.3668,275,0.45,-275,0.5171,0;0.5;0,0,135.4391,0.0,-1002.0,-434.0,1,1
34,136.1970,-941.2748,-805.0778,949.2780,144.2003,0.3001,144.5004,0.3668,-275,0.2,275,0.2235,0;0.5;0,1,144.1009,1.0,1008.0,-511.0,1,1
35,144.8672,-949.9450,-805.0778,951.6123,146.5345,0.3001,146.8347,0.3668,-275,0.0088,275,0.0117,0;0.5;0,1,146.4435,1.0,1016.0,-516.0,1,1
36,147.2015,-952.2792,-805.0778,952.6127,147.5349,0.3001,147.8351,0.3668,275,0.45,-275,1,0;0.5;0,0,147.4355,0.0,-1038.0,-416.0,1,1
37,148.2019,-953.2797,-805.0778,954.7803,149.7025,0.3001,150.0026,0.3668,-275,0.2,275,0.2235,1;0;0,1,149.6031,0.0,-1028.0,-410.0,1,0
38,150.3694,-955.4472,-805.0778,956.8811,151.8033,0.3001,152.1035,0.3668,275,0,-275,0.001,0;0.5;0,0,151.7124,0.0,-1011.0,-462.0,1,1
39,152.4703,-957.5481,-805.0778,959.0487,153.9709,0.3001,154.2710,0.3668,-275,0,275,0.0671,1;0;0,1,153.8797,0.0,-974.0,-487.0,1,0
40,154.6378,-959.7156,-805.0778,962.7001,157.6224,0.3001,157.9225,0.3668,-275,0.05,275,0.6,0;0.5;0,1,157.5314,1.0,985.0,-538.0,1,1
41,158.2893,-963.3671,-805.0778,965.0011,159.9233,0.3001,160.2234,0.3668,-275,0.05,275,0.0529,0;0.5;0,1,159.8321,1.0,989.0,-500.0,1,1
42,160.5902,-965.6680,-805.0778,967.9356,162.8578,0.3001,163.1580,0.3668,-275,0.05,275,0.0735,0;0.5;0,1,162.7668,1.0,868.0,-440.0,1,1
43,163.5248,-968.6025,-805.0778,970.1365,165.0587,0.3001,165.3589,0.3668,-275,0.45,275,0.6421,0;0.5;0,1,164.9593,1.0,932.0,-447.0,1,1
44,165.7257,-970.8034,-805.0778,972.3541,167.2763,0.3001,167.5764,0.3668,-275,0.05,275,0.1171,0;0.5;0,1,167.1771,1.0,970.0,-460.0,1,1
45,167.9432,-973.0210,-805.0778,974.6550,169.5772,0.3001,169.8774,0.3668,-275,0.0167,275,0.2088,0;0.5;0,1,169.4864,1.0,939.0,-448.0,1,1
46,170.2442,-975.3219,-805.0778,977.1727,172.0949,0.3001,172.3950,0.3668,275,0.05,-275,0.1171,1;0;0,0,172.0039,1.0,965.0,-444.0,1,0
47,172.7619,-977.8396,-805.0778,979.6737,174.5959,0.3001,174.8961,0.3668,275,0.2,-275,0.2235,0;0.5;0,0,174.4966,0.0,-1052.0,-382.0,1,1
48,175.2629,-980.3406,-805.0778,981.9746,176.8969,0.3001,177.1970,0.3668,275,0,-275,0.0029,1;0;0,0,176.8058,1.0,965.0,-439.0,1,0
49,177.5638,-982.6416,-805.0778,984.2256,179.1478,0.3001,179.4479,0.3668,275,0.45,-275,1,0;0.5;0,0,179.0483,0.0,-1054.0,-370.0,1,1
50,179.8147,-984.8925,-805.0778,986.3431,181.2653,0.3001,181.5654,0.3668,-275,0.05,275,0.0529,1;0;0,1,181.1659,0.0,-1075.0,-364.0,1,0
51,181.9322,-987.0100,-805.0778,989.2109,184.1331,0.3001,184.4333,0.3668,275,0.0167,-275,0.2088,0;0.5;0,0,184.0421,0.0,-993.0,-412.0,1,1
52,184.8001,-989.8778,-805.0778,991.2784,186.2006,0.3001,186.5008,0.3668,-275,0.0167,275,0.0177,1;0;0,1,186.1012,0.0,-980.0,-432.0,1,0
53,186.8676,-991.9454,-805.0778,992.9458,187.8680,0.3001,188.1681,0.3668,-275,0.05,275,0.1171,0;0.5;0,1,187.7686,1.0,954.0,-424.0,1,1
54,188.5349,-993.6127,-805.0778,994.9799,189.9022,0.3001,190.2023,0.3668,275,0.2,-275,1,0;0.5;0,0,189.8028,0.0,-1044.0,-345.0,1,1
55,190.5691,-995.6469,-805.0778,996.8807,191.8029,0.3001,192.1030,0.3668,-275,0.0167,275,0.0838,1;0;0,1,191.7036,0.0,-1024.0,-357.0,1,0
56,192.4699,-997.5476,-805.0778,1002.0661,196.9884,0.3001,197.2885,0.3668,275,0,-275,0.0082,0;0.5;0,0,196.8889,0.0,-1096.0,-348.0,1,1
57,197.6553,-1002.7331,-805.0778,1003.6835,198.6057,0.3001,198.9058,0.3668,-275,0.2,275,0.75,1;0;0,1,198.5147,0.0,-1001.0,-414.0,1,0
58,199.2726,-1004.3504,-805.0778,1006.0177,200.9400,0.3001,201.2401,0.3668,-275,0.45,275,1,0;0.5;0,1,200.8406,1.0,1006.0,-469.0,1,1
59,201.6069,-1006.6847,-805.0778,1008.1686,203.0908,0.3001,203.3910,0.3668,-275,0.2,275,0.3921,0;0.5;0,1,202.9914,1.0,972.0,-451.0,1,1
60,203.7578,-1008.8355,-805.0778,1010.1861,205.1083,0.3001,205.4084,0.3668,-275,0.05,275,0.2421,0;0.5;0,1,205.0089,1.0,963.0,-456.0,1,1
61,205.7753,-1010.8530,-805.0778,1012.7371,207.6594,0.3001,207.9595,0.3668,-275,0.2,275,1,0;0.5;0,1,207.5600,1.0,972.0,-459.0,1,1
62,208.3263,-1013.4041,-805.0778,1015.2381,210.1604,0.3001,210.4605,0.3668,275,0.05,-275,0.0735,1;0;0,0,210.0693,1.0,926.0,-413.0,1,0
63,210.8273,-1015.9051,-805.0778,1017.8892,212.8115,0.3001,213.1116,0.3668,275,0,-275,0.0029,1;0;0,0,212.7205,1.0,929.0,-407.0,1,0
64,213.4784,-1018.5562,-805.0778,1019.6066,214.5288,0.3001,214.8289,0.3668,275,0.45,-275,0.5171,0;0.5;0,0,214.4294,0.0,-1052.0,-355.0,1,1
65,215.1958,-1020.2735,-805.0778,1021.5240,216.4463,0.3001,216.7464,0.3668,275,0.45,-275,0.4582,0;0.5;0,0,216.3551,0.0,-993.0,-369.0,1,1
66,217.1132,-1022.1910,-805.0778,1023.2414,218.1636,0.3001,218.4637,0.3668,-275,0.45,275,0.4582,1;0;0,1,218.0643,0.0,-977.0,-393.0,1,0
67,218.8306,-1023.9083,-805.0778,1026.5927,221.5150,0.3001,221.8151,0.3668,-275,0.0088,275,0.0323,1;0;0,1,221.4156,0.0,-937.0,-421.0,1,0
68,222.1819,-1027.2597,-805.0778,1029.7607,224.6829,0.3001,224.9831,0.3668,275,0.0167,-275,0.2088,0;0.5;0,0,224.5921,0.0,-953.0,-425.0,1,1
69,225.3499,-1030.4276,-805.0778,1031.4781,226.4003,0.3001,226.7004,0.3668,275,0.05,-275,0.2421,0;0.5;0,0,226.3092,0.0,-959.0,-388.0,1,1
70,227.0672,-1032.1450,-805.0778,1041.2987,236.2210,0.3001,236.5211,0.3668,275,0,-275,0.0082,1;0;0,0,236.1216,1.0,988.0,-422.0,1,0
71,236.8879,-1041.9657,-805.0778,1044.1665,239.0888,0.3001,239.3889,0.3668,-275,0.2,275,0.2671,0;0.5;0,1,238.9977,1.0,919.0,-329.0,1,1
72,239.7557,-1044.8335,-805.0778,1046.6009,241.5231,0.3001,241.8232,0.3668,275,0.0088,-275,0.0117,1;0;0,0,241.4238,1.0,903.0,-466.0,1,0
73,242.1900,-1047.2678,-805.0778,1048.5683,243.4906,0.3001,243.7907,0.3668,-275,0,275,0.0671,1;0;0,1,243.3996,0.0,-1061.0,-299.0,1,0
74,244.1575,-1049.2353,-805.0778,1050.5525,245.4747,0.3001,245.7748,0.3668,275,0.0088,-275,0.0117,0;0.5;0,0,245.3837,0.0,-830.0,-397.0,1,1
75,246.1416,-1051.2194,-805.0778,1053.1035,248.0257,0.3001,248.3259,0.3668,-275,0.05,275,0.0735,0;0.5;0,1,247.9347,1.0,956.0,-322.0,1,1
76,248.6927,-1053.7704,-805.0778,1055.2544,250.1766,0.3001,250.4767,0.3668,275,0.0167,-275,0.0196,1;0;0,0,250.0856,1.0,933.0,-326.0,1,0
77,250.8436,-1055.9213,-805.0778,1057.5720,252.4942,0.3001,252.7943,0.3668,275,0.2,-275,0.75,0;0.5;0,0,252.4032,0.0,-968.0,-219.0,1,1
78,253.1612,-1058.2389,-805.0778,1059.3560,254.2783,0.3001,254.5784,0.3668,275,0,-275,0.001,0;0.5;0,0,254.1788,0.0,-929.0,-222.0,1,1
79,254.9452,-1060.0230,-805.0778,1061.1234,256.0457,0.3001,256.3458,0.3668,275,0.45,-275,0.6421,0;0.5;0,0,255.9461,0.0,-880.0,-282.0,1,1
80,256.7126,-1061.7904,-805.0778,1063.1409,258.0631,0.3001,258.3633,0.3668,-275,0.05,275,0.1171,0;0.5;0,1,257.9638,1.0,980.0,-266.0,1,1
81,258.7301,-1063.8079,-805.0778,1069.9937,264.9159,0.3001,265.2161,0.3668,275,0,-275,0.0671,0;0.5;0,0,264.8165,0.0,-859.0,-328.0,1,1
82,265.5829,-1070.6606,-805.0778,1072.8949,267.8171,0.3001,268.1172,0.3668,-275,0.0088,275,0.0098,1;0;0,1,267.7261,0.0,-930.0,-227.0,1,0
83,268.4840,-1073.5618,-805.0778,1074.4955,269.4178,0.3001,269.7179,0.3668,-275,0.2,275,0.2235,0;0.5;0,1,269.3267,1.0,1011.0,-297.0,1,1
84,270.0847,-1075.1625,-805.0778,1081.7651,276.6874,0.3001,276.9875,0.3668,-275,0.0088,275,0.0098,0;0.5;0,1,276.5964,1.0,1009.0,-303.0,1,1
85,277.3543,-1082.4321,-805.0778,1084.3662,279.2884,0.3001,279.5885,0.3668,275,0.0088,-275,0.2009,0;0.5;0,0,279.1974,0.0,-944.0,-306.0,1,1
86,279.9554,-1085.0331,-805.0778,1086.6171,281.5393,0.3001,281.8395,0.3668,275,0.05,-275,0.0582,0;0.5;0,0,281.4482,0.0,-969.0,-277.0,1,1
87,282.2063,-1087.2840,-805.0778,1090.1685,285.0908,0.3001,285.3909,0.3668,275,0,-275,0.001,1;0;0,0,284.9999,1.0,971.0,-317.0,1,0
88,285.7577,-1090.8355,-805.0778,1092.2527,287.1750,0.3001,287.4751,0.3668,-275,0.0088,275,0.0759,0;0.5;0,1,287.0838,1.0,982.0,-297.0,1,1
89,287.8419,-1092.9197,-805.0778,1096.9713,291.8935,0.3001,292.1937,0.3668,275,0.0167,-275,0.0838,0;0.5;0,0,291.8025,0.0,-875.0,-321.0,1,1
90,292.5605,-1097.6382,-805.0778,1100.3727,295.2949,0.3001,295.5950,0.3668,-275,0.2,275,0.75,0;0.5;0,1,295.1956,1.0,955.0,-289.0,1,1
91,295.9619,-1101.0396,-805.0778,1102.7236,297.6459,0.3001,297.9460,0.3668,275,0.2,-275,0.3921,1;0;0,0,297.5465,1.0,974.0,-288.0,1,0
92,298.3128,-1103.3906,-805.0778,1104.7078,299.6300,0.3001,299.9301,0.3668,-275,0.05,275,0.1171,0;0.5;0,1,299.5390,1.0,961.0,-299.0,1,1
93,300.2969,-1105.3747,-805.0778,1107.8424,302.7646,0.3001,303.0647,0.3668,-275,0.0088,275,0.0117,1;0;0,1,302.6736,0.0,-1051.0,-133.0,1,0
94,303.4316,-1108.5093,-805.0778,1110.3767,305.2990,0.3001,305.5991,0.3668,275,0.2,-275,0.75,0;0.5;0,0,305.1996,0.0,-895.0,-288.0,1,1
95,305.9659,-1111.0437,-805.0778,1113.1779,308.1001,0.3001,308.4002,0.3668,-275,0.2,275,1,0;0.5;0,1,308.0008,1.0,1009.0,-332.0,1,1
96,308.7671,-1113.8448,-805.0778,1115.3121,310.2343,0.3001,310.5344,0.3668,275,0.0088,-275,0.017,1;0;0,0,310.1433,1.0,990.0,-337.0,1,0
97,310.9013,-1115.9790,-805.0778,1121.7314,316.6536,0.3001,316.9537,0.3668,-275,0.0088,275,0.0098,0;0.5;0,1,316.5542,1.0,937.0,-319.0,1,1
98,317.3205,-1122.3983,-805.0778,1124.0156,318.9378,0.3001,319.2380,0.3668,-275,0.0088,275,0.017,0;0.5;0,1,318.8469,1.0,895.0,-280.0,1,1
99,319.6048,-1124.6825,-805.0778,1128.3174,323.2396,0.3001,323.5397,0.3668,-275,0.2,275,0.2082,0;0.5;0,1,323.1485,1.0,937.0,-282.0,1,1
100,323.9065,-1128.9843,-805.0778,1130.2348,325.1570,0.3001,325.4572,0.3668,275,0,-275,0.0029,0;0.5;0,0,325.0660,0.0,-918.0,-319.0,1,1
101,325.8240,-1130.9017,-805.0778,1132.2356,327.1578,0.3001,327.4580,0.3668,-275,0.2,275,0.2671,0;0.5;0,1,327.0669,1.0,976.0,-280.0,1,1
102,327.8248,-1132.9025,-805.0778,1136.0538,330.9761,0.3001,331.2762,0.3668,275,0.0167,-275,0.0838,0;0.5;0,0,330.8851,0.0,-880.0,-295.0,1,1
103,331.6430,-1136.7208,-805.0778,1137.8879,332.8101,0.3001,333.1103,0.3668,-275,0.0167,275,0.0838,1;0;0,1,332.7191,0.0,-836.0,-330.0,1,0
104,333.4771,-1138.5548,-805.0778,1141.8562,336.7784,0.3001,337.0785,0.3668,-275,0,275,0.0082,0;0.5;0,1,336.6791,1.0,984.0,-287.0,1,1
105,337.4453,-1142.5231,-805.0778,1144.9074,339.8296,0.3001,340.1298,0.3668,275,0,-275,0.0029,1;0;0,0,339.7303,1.0,964.0,-297.0,1,0
106,340.4966,-1145.5744,-805.0778,1149.3759,344.2981,0.3001,344.5983,0.3668,275,0.0088,-275,0.017,1;0;0,0,344.2071,1.0,950.0,-293.0,1,0
107,344.9651,-1150.0428,-805.0778,1157.1791,352.1013,0.3001,352.4014,0.3668,-275,0.0167,275,0.0402,1;0;0,1,352.0102,0.0,-981.0,-231.0,1,0
108,352.7682,-1157.8460,-805.0778,1158.8797,353.8020,0.3001,354.1021,0.3668,275,0.0167,-275,0.0249,0;0.5;0,0,353.7110,0.0,-865.0,-348.0,1,1
109,354.4689,-1159.5467,-805.0778,1162.4312,357.3534,0.3001,357.6535,0.3668,-275,0.0167,275,0.0402,1;0;0,1,357.2540,0.0,-893.0,-268.0,1,0
110,358.0204,-1163.0981,-805.0778,1170.0676,364.9899,0.3001,365.2900,0.3668,-275,0.0088,275,0.0098,0;0.5;0,1,364.8989,1.0,1038.0,-267.0,1,1
111,365.6568,-1170.7346,-805.0778,1173.0355,367.9577,0.3001,368.2578,0.3668,-275,0.2,275,0.2082,0;0.5;0,1,367.8667,1.0,952.0,-331.0,1,1
112,368.6247,-1173.7024,-805.0778,1175.6199,370.5421,0.3001,370.8422,0.3668,-275,0.0088,275,0.0759,1;0;0,1,370.4426,0.0,-977.0,-213.0,1,0
113,371.2090,-1176.2868,-805.0778,1176.8704,371.7926,0.3001,372.0927,0.3668,-275,0,275,0.0082,1;0;0,1,371.6932,0.0,-848.0,-268.0,1,0
114,372.4595,-1177.5373,-805.0778,1181.4222,376.3445,0.3001,376.6446,0.3668,275,0.0167,-275,0.2088,0;0.5;0,0,376.2450,0.0,-845.0,-282.0,1,1
115,377.0114,-1182.0892,-805.0778,1185.5072,380.4294,0.3001,380.7296,0.3668,275,0.45,-275,0.4735,1;0;0,0,380.3385,1.0,932.0,-278.0,1,0
116,381.0964,-1186.1742,-805.0778,1187.5247,382.4469,0.3001,382.7471,0.3668,-275,0,275,0.1921,0;0.5;0,1,382.3558,1.0,946.0,-251.0,1,1
117,383.1139,-1188.1916,-805.0778,1189.7923,384.7145,0.3001,385.0146,0.3668,-275,0,275,0.0082,1;0;0,1,384.6151,0.0,-918.0,-256.0,1,0
118,385.3815,-1190.4592,-805.0778,1191.5430,386.4652,0.3001,386.7653,0.3668,-275,0.0167,275,0.2088,0;0.5;0,1,386.3658,1.0,949.0,-252.0,1,1
119,387.1322,-1192.2099,-805.0778,1193.0936,388.0159,0.3001,388.3160,0.3668,275,0.45,-275,1,1;0;0,0,387.9249,1.0,975.0,-269.0,1,0
120,388.6828,-1193.7606,-805.0778,1195.7947,390.7170,0.3001,391.0171,0.3668,275,0.0088,-275,0.0098,1;0;0,0,390.6176,1.0,958.0,-276.0,1,0
121,391.3839,-1196.4617,-805.0778,1198.1623,393.0846,0.3001,393.3847,0.3668,275,0.0088,-275,0.0117,0;0.5;0,0,392.9852,0.0,-872.0,-296.0,1,1
122,393.7515,-1198.8293,-805.0778,1200.3299,395.2521,0.3001,395.5522,0.3668,-275,0.0167,275,0.0196,1;0;0,1,395.1528,0.0,-870.0,-292.0,1,0
123,395.9191,-1200.9968,-805.0778,1222.0053,416.9276,0.3001,417.2277,0.3668,-275,0.0088,275,0.2009,0;0.5;0,1,416.8365,1.0,999.0,-289.0,1,1
124,417.5945,-1222.6723,-805.0778,1224.7231,419.6453,0.3001,419.9455,0.3668,-275,0,275,0.0235,1;0;0,1,419.5542,0.0,-902.0,-370.0,1,0
125,420.3123,-1225.3900,-805.0778,1228.0911,423.0134,0.3001,423.3135,0.3668,275,0.0088,-275,0.017,1;0;0,0,422.9140,1.0,872.0,-283.0,1,0
126,423.6803,-1228.7581,-805.0778,1230.3421,425.2643,0.3001,425.5644,0.3668,275,0.2,-275,0.2082,1;0;0,0,425.1649,1.0,834.0,-301.0,1,0
127,425.9312,-1231.0090,-805.0778,1233.4433,428.3655,0.3001,428.6657,0.3668,-275,0.0088,275,0.0323,1;0;0,1,428.2661,0.0,-865.0,-202.0,1,0
128,429.0325,-1234.1102,-805.0778,1235.4441,430.3664,0.3001,430.6665,0.3668,275,0,-275,0.1921,0;0.5;0,0,430.2670,0.0,-816.0,-258.0,1,1
129,431.0333,-1236.1111,-805.0778,1237.7117,432.6339,0.3001,432.9341,0.3668,-275,0.2,275,0.2235,1;0;0,1,432.5345,0.0,-792.0,-274.0,1,0
130,433.3009,-1238.3786,-805.0778,1239.8793,434.8015,0.3001,435.1016,0.3668,275,0.2,-275,0.2671,0;0.5;0,0,434.7021,0.0,-804.0,-289.0,1,1
131,435.4684,-1240.5462,-805.0778,1243.5474,438.4696,0.3001,438.7698,0.3668,275,0.0167,-275,0.0249,0;0.5;0,0,438.3786,0.0,-1092.0,-90.0,1,1
132,439.1366,-1244.2143,-805.0778,1246.9988,441.9210,0.3001,442.2212,0.3668,275,0,-275,0.0029,1;0;0,0,441.8300,1.0,963.0,-315.0,1,0
133,442.5880,-1247.6657,-805.0778,1258.1533,453.0756,0.3001,453.3757,0.3668,275,0.05,-275,0.1171,0;0.5;0,0,452.9846,0.0,-960.0,-438.0,1,1
134,453.7425,-1258.8203,-805.0778,1261.4046,456.3269,0.3001,456.6270,0.3668,-275,0,275,0.001,0;0.5;0,1,456.2275,1.0,1017.0,-295.0,1,1
135,456.9938,-1262.0716,-805.0778,1267.9240,462.8462,0.3001,463.1463,0.3668,275,0.0088,-275,0.0117,0;0.5;0,0,462.7469,0.0,-943.0,-416.0,1,1
136,463.5131,-1268.5909,-805.0778,1270.4750,465.3972,0.3001,465.6973,0.3668,275,0,-275,0.0671,1;0;0,0,465.3063,1.0,952.0,-288.0,1,0
137,466.0642,-1271.1419,-805.0778,1273.1928,468.1150,0.3001,468.4151,0.3668,-275,0.0167,275,0.0402,0;0.5;0,1,468.0239,1.0,893.0,-325.0,1,1
138,468.7819,-1273.8597,-805.0778,1275.2603,470.1825,0.3001,470.4826,0.3668,275,0,-275,0.1921,1;0;0,0,470.0916,1.0,886.0,-297.0,1,0
139,470.8494,-1275.9272,-805.0778,1277.9780,472.9003,0.3001,473.2004,0.3668,-275,0.2,275,1,0;0.5;0,1,472.8092,1.0,941.0,-314.0,1,1
140,473.5672,-1278.6450,-805.0778,1280.3790,475.3012,0.3001,475.6014,0.3668,275,0.0167,-275,0.0196,1;0;0,0,475.2102,1.0,884.0,-355.0,1,0
141,475.9682,-1281.0459,-805.0778,1290.0996,485.0218,0.3001,485.3220,0.3668,-275,0.0088,275,0.017,0;0.5;0,1,484.9308,1.0,1030.0,-369.0,1,1
142,485.6888,-1290.7665,-805.0778,1292.9841,487.9063,0.3001,488.2065,0.3668,-275,0.2,275,0.2671,0;0.5;0,1,487.8154,1.0,1037.0,-404.0,1,1
143,488.5733,-1293.6510,-805.0778,1295.5351,490.4574,0.3001,490.7575,0.3668,275,0.2,-275,0.2671,1;0;0,0,490.3662,1.0,1046.0,-354.0,1,0
144,491.1243,-1296.2021,-805.0778,1301.0040,495.9263,0.3001,496.2264,0.3668,-275,0.2,275,0.2082,0;0.5;0,1,495.8352,1.0,976.0,-335.0,1,1
145,496.5932,-1301.6710,-805.0778,1304.8056,499.7278,0.3001,500.0279,0.3668,-275,0.05,275,0.0582,1;0;0,1,499.6367,0.0,-845.0,-341.0,1,0
146,500.3947,-1305.4725,-805.0778,1306.7730,501.6953,0.3001,501.9954,0.3668,275,0.0088,-275,0.0323,0;0.5;0,0,501.5959,0.0,-834.0,-311.0,1,1
147,502.3622,-1307.4400,-805.0778,1309.3241,504.2463,0.3001,504.5464,0.3668,-275,0.2,275,0.3921,0;0.5;0,1,504.1554,1.0,990.0,-285.0,1,1
148,504.9132,-1309.9910,-805.0778,1317.0605,511.9828,0.3001,512.2829,0.3668,-275,0.0167,275,0.0196,0;0.5;0,1,511.8918,1.0,1007.0,-259.0,1,1
149,512.6497,-1317.7275,-805.0778,1319.3114,514.2337,0.3001,514.5338,0.3668,275,0.45,-275,0.5171,1;0;0,0,514.1343,1.0,1027.0,-271.0,1,0
150,514.9006,-1319.9784,-805.0778,1321.5790,516.5013,0.3001,516.8014,0.3668,275,0.45,-275,0.6421,0;0.5;0,0,516.4102,0.0,-983.0,-259.0,1,1
151,517.1682,-1322.2460,-805.0778,1323.8466,518.7688,0.3001,519.0690,0.3668,-275,0,275,0.0082,1;0;0,1,518.6778,0.0,-866.0,-337.0,1,0
152,519.4358,-1324.5135,-805.0778,1325.4806,520.4028,0.3001,520.7030,0.3668,-275,0.05,275,0.0582,1;0;0,1,520.3118,0.0,-836.0,-361.0,1,0
153,521.0698,-1326.1475,-805.0778,1328.4651,523.3874,0.3001,523.6875,0.3668,-275,0.0088,275,0.0323,1;0;0,1,523.2962,0.0,-913.0,-291.0,1,0
154,524.0543,-1329.1321,-805.0778,1336.3683,531.2906,0.3001,531.5907,0.3668,275,0.05,-275,0.1171,0;0.5;0,0,531.1996,0.0,-1038.0,-346.0,1,1
155,531.9575,-1337.0353,-805.0778,1337.3854,532.3077,0.3001,532.6078,0.3668,-275,0.45,275,0.6421,1;0;0,1,532.2167,0.0,-1058.0,-318.0,1,0
156,532.9746,-1338.0524,-805.0778,1339.0861,534.0083,0.3001,534.3085,0.3668,-275,0.0167,275,0.0196,1;0;0,1,533.9090,0.0,-1080.0,-311.0,1,0
157,534.6753,-1339.7531,-805.0778,1340.3033,535.2255,0.3001,535.5256,0.3668,-275,0.0167,275,0.2088,1;0;0,1,535.1345,0.0,-1063.0,-340.0,1,0
158,535.8924,-1340.9702,-805.0778,1341.1703,536.0925,0.3001,536.3926,0.3668,-275,0.0088,275,0.0098,1;0;0,1,535.9932,0.0,-1062.0,-342.0,1,0
159,536.7595,-1341.8372,-805.0778,1342.4208,537.3430,0.3001,537.6432,0.3668,-275,0.0167,275,0.0838,1;0;0,1,537.2519,0.0,-979.0,-427.0,1,0
160,538.0100,-1343.0877,-805.0778,1344.9885,539.9107,0.3001,540.2109,0.3668,-275,0.0088,275,0.0117,0;0.5;0,1,539.8113,1.0,903.0,-316.0,1,1
161,540.5777,-1345.6554,-805.0778,1349.6571,544.5793,0.3001,544.8794,0.3668,275,0.0167,-275,0.0177,0;0.5;0,0,544.4799,0.0,-884.0,-366.0,1,1
162,545.2462,-1350.3240,-805.0778,1352.1247,547.0470,0.3001,547.3471,0.3668,-275,0.05,275,0.1171,1;0;0,1,546.9476,0.0,-891.0,-375.0,1,0
163,547.7139,-1352.7917,-805.0778,1356.8100,551.7322,0.3001,552.0323,0.3668,-275,0,275,0.0029,0;0.5;0,1,551.6411,1.0,977.0,-266.0,1,1
164,552.3991,-1357.4769,-805.0778,1359.4277,554.3499,0.3001,554.6500,0.3668,-275,0.0088,275,0.017,0;0.5;0,1,554.2589,1.0,999.0,-258.0,1,1
165,555.0169,-1360.0946,-805.0778,1362.0788,557.0010,0.3001,557.3011,0.3668,275,0.05,-275,0.0582,0;0.5;0,0,556.9015,0.0,-1107.0,-200.0,1,1
166,557.6679,-1362.7457,-805.0778,1364.5798,559.5020,0.3001,559.8021,0.3668,-275,0,275,0.1921,1;0;0,1,559.4025,0.0,-1009.0,-258.0,1,0
167,560.1689,-1365.2467,-805.0778,1365.7803,560.7025,0.3001,561.0026,0.3668,275,0.45,-275,0.4735,0;0.5;0,0,560.6113,0.0,-824.0,-334.0,1,1
168,561.3694,-1366.4472,-805.0778,1367.5977,562.5199,0.3001,562.8200,0.3668,275,0.0167,-275,0.0402,0;0.5;0,0,562.4204,0.0,-815.0,-347.0,1,1
169,563.1868,-1368.2646,-805.0778,1376.8181,571.7403,0.3001,572.0404,0.3668,275,0.05,-275,0.1171,1;0;0,0,571.6409,1.0,965.0,-290.0,1,0
170,572.4072,-1377.4850,-805.0778,1383.5041,578.4263,0.3001,578.7265,0.3668,-275,0,275,0.1921,1;0;0,1,578.3269,0.0,-966.0,-205.0,1,0
171,579.0933,-1384.1710,-805.0778,1385.7217,580.6439,0.3001,580.9440,0.3668,275,0.2,-275,0.2235,0;0.5;0,0,580.5528,0.0,-993.0,-198.0,1,1
172,581.3108,-1386.3886,-805.0778,1389.4732,584.3954,0.3001,584.6955,0.3668,-275,0.2,275,1,0;0.5;0,1,584.2959,1.0,935.0,-219.0,1,1
173,585.0624,-1390.1401,-805.0778,1391.7574,586.6797,0.3001,586.9798,0.3668,-275,0.0167,275,0.0838,0;0.5;0,1,586.5801,1.0,942.0,-273.0,1,1
174,587.3466,-1392.4244,-805.0778,1394.3251,589.2474,0.3001,589.5475,0.3668,-275,0.2,275,0.75,0;0.5;0,1,589.1479,1.0,920.0,-321.0,1,1
175,589.9143,-1394.9921,-805.0778,1404.8127,599.7350,0.3001,600.0351,0.3668,-275,0.2,275,0.75,0;0.5;0,1,599.6356,1.0,994.0,-298.0,1,1
176,600.4019,-1405.4797,-805.0778,1408.1141,603.0363,0.3001,603.3364,0.3668,275,0.0167,-275,0.0402,1;0;0,0,602.9368,1.0,950.0,-351.0,1,0
177,603.7032,-1408.7810,-805.0778,1411.0486,605.9708,0.3001,606.2709,0.3668,275,0,-275,0.0029,0;0.5;0,0,605.8715,0.0,-977.0,-297.0,1,1
178,606.6378,-1411.7155,-805.0778,1414.3666,609.2888,0.3001,609.5889,0.3668,-275,0.0088,275,0.0759,1;0;0,1,609.1978,0.0,-854.0,-325.0,1,0
179,609.9558,-1415.0335,-805.0778,1420.9359,615.8582,0.3001,616.1583,0.3668,275,0.45,-275,0.5171,1;0;0,0,615.7671,1.0,981.0,-280.0,1,0
180,616.5251,-1421.6029,-805.0778,1425.5211,620.4433,0.3001,620.7435,0.3668,275,0.0088,-275,0.2009,1;0;0,0,620.3522,1.0,994.0,-282.0,1,0
181,621.1103,-1426.1880,-805.0778,1427.3719,622.2941,0.3001,622.5942,0.3668,-275,0,275,0.1921,0;0.5;0,1,622.2030,1.0,1041.0,-277.0,1,1
182,622.9610,-1428.0388,-805.0778,1430.0063,624.9285,0.3001,625.2286,0.3668,275,0.0088,-275,0.0323,1;0;0,0,624.8375,1.0,959.0,-340.0,1,0
183,625.5954,-1430.6732,-805.0778,1438.6264,633.5486,0.3001,633.8488,0.3668,-275,0.05,275,0.2421,0;0.5;0,1,633.4576,1.0,962.0,-337.0,1,1
184,634.2156,-1439.2934,-805.0778,1441.7610,636.6832,0.3001,636.9834,0.3668,-275,0.0088,275,0.0117,1;0;0,1,636.5922,0.0,-919.0,-421.0,1,0
185,637.3502,-1442.4280,-805.0778,1443.7785,638.7007,0.3001,639.0009,0.3668,275,0.2,-275,0.2671,0;0.5;0,0,638.6097,0.0,-856.0,-407.0,1,1
186,639.3677,-1444.4454,-805.0778,1448.8139,643.7361,0.3001,644.0362,0.3668,275,0.2,-275,0.2235,0;0.5;0,0,643.6368,0.0,-846.0,-369.0,1,1
187,644.4030,-1449.4808,-805.0778,1450.7813,645.7036,0.3001,646.0037,0.3668,-275,0.45,275,0.5171,1;0;0,1,645.6042,0.0,-884.0,-335.0,1,0
188,646.3705,-1451.4483,-805.0778,1453.1156,648.0378,0.3001,648.3380,0.3668,-275,0,275,0.001,1;0;0,1,647.9468,0.0,-910.0,-311.0,1,0
189,648.7048,-1453.7825,-805.0778,1454.9830,649.9053,0.3001,650.2054,0.3668,275,0.05,-275,0.6,0;0.5;0,0,649.8142,0.0,-930.0,-305.0,1,1
190,650.5722,-1455.6500,-805.0778,1457.6675,652.5897,0.3001,652.8898,0.3668,275,0.0088,-275,0.0117,0;0.5;0,0,652.4903,0.0,-947.0,-295.0,1,1
191,653.2566,-1458.3344,-805.0778,1461.2856,656.2078,0.3001,656.5079,0.3668,-275,0.0167,275,0.0196,1;0;0,1,656.1167,0.0,-935.0,-320.0,1,0
192,656.8748,-1461.9525,-805.0778,1463.2864,658.2086,0.3001,658.5087,0.3668,-275,0.45,275,0.5171,1;0;0,1,658.1092,0.0,-862.0,-364.0,1,0
193,658.8756,-1463.9533,-805.0778,1465.1538,660.0760,0.3001,660.3762,0.3668,275,0.45,-275,0.5171,0;0.5;0,0,659.9767,0.0,-865.0,-383.0,1,1
194,660.7430,-1465.8208,-805.0778,1467.8049,662.7271,0.3001,663.0272,0.3668,-275,0.0088,275,0.017,1;0;0,1,662.6277,0.0,-891.0,-394.0,1,0
195,663.3941,-1468.4718,-805.0778,1469.7057,664.6279,0.3001,664.9280,0.3668,275,0.0167,-275,0.2088,0;0.5;0,0,664.5369,0.0,-875.0,-383.0,1,1
196,665.2948,-1470.3726,-805.0778,1474.9745,669.8967,0.3001,670.1968,0.3668,275,0.2,-275,0.3921,1;0;0,0,669.7972,1.0,945.0,-272.0,1,0
197,670.5636,-1475.6414,-805.0778,1486.3457,681.2680,0.3001,681.5681,0.3668,-275,0.45,275,0.4735,0;0.5;0,1,681.1685,1.0,1003.0,-284.0,1,1
198,681.9349,-1487.0127,-805.0778,1489.0301,683.9524,0.3001,684.2525,0.3668,275,0.0088,-275,0.0117,1;0;0,0,683.8614,1.0,972.0,-317.0,1,0
199,684.6193,-1489.6971,-805.0778,1491.4978,686.4200,0.3001,686.7202,0.3668,-275,0.2,275,0.3921,0;0.5;0,1,686.3289,1.0,920.0,-305.0,1,1
200,687.0870,-1492.1647,-805.0778,1493.6487,688.5709,0.3001,688.8710,0.3668,275,0.0167,-275,0.0402,0;0.5;0,0,688.4382,0.0,-1175.0,-264.0,1,1
201,689.2379,-1494.3156,-805.0778,1497.3835,692.3058,0.3001,692.6059,0.3668,275,0.0088,-275,0.0759,0;0.5;0,0,692.2064,0.0,-878.0,-287.0,1,1
202,692.9727,-1498.0505,-805.0778,1498.2505,693.1728,0.3001,693.4729,0.3668,-275,0.45,275,0.6421,1;0;0,1,693.0817,0.0,-820.0,-338.0,1,0
203,693.8397,-1498.9175,-805.0778,1499.7678,694.6901,0.3001,694.9902,0.3668,275,0.0088,-275,0.2009,0;0.5;0,0,694.5906,0.0,-855.0,-299.0,1,1
204,695.3570,-1500.4348,-805.0778,1503.5360,698.4582,0.3001,698.7584,0.3668,275,0.0167,-275,0.0838,1;0;0,0,698.3588,1.0,1001.0,-280.0,1,0
205,699.1252,-1504.2030,-805.0778,1509.1049,704.0272,0.3001,704.3273,0.3668,-275,0.05,275,0.0529,0;0.5;0,1,703.9361,1.0,1013.0,-253.0,1,1
206,704.6941,-1509.7719,-805.0778,1521.5433,716.4655,0.3001,716.7657,0.3668,275,0.2,-275,0.2082,0;0.5;0,0,716.3661,0.0,-1109.0,-364.0,1,1
207,717.1325,-1522.2102,-805.0778,1534.1151,729.0373,0.3001,729.3374,0.3668,275,0.2,-275,0.75,0;0.5;0,0,728.9378,0.0,-1043.0,-322.0,1,1
208,729.7042,-1534.7820,-805.0778,1536.1659,731.0881,0.3001,731.3882,0.3668,-275,0,275,0.0671,1;0;0,1,730.9971,0.0,-923.0,-333.0,1,0
209,731.7551,-1536.8328,-805.0778,1538.2167,733.1389,0.3001,733.4391,0.3668,-275,0.45,275,0.6421,0;0.5;0,1,733.0480,1.0,1036.0,-285.0,1,1
210,733.8059,-1538.8836,-805.0778,1539.6506,734.5729,0.3001,734.8730,0.3668,-275,0.0167,275,0.0838,0;0.5;0,1,734.4734,1.0,1066.0,-234.0,1,1
211,735.2398,-1540.3176,-805.0778,1541.6014,736.5236,0.3001,736.8238,0.3668,-275,0.05,275,0.2421,0;0.5;0,1,736.4243,1.0,1018.0,-416.0,1,1
212,737.1906,-1542.2684,-805.0778,1544.6693,739.5916,0.3001,739.8917,0.3668,-275,0.45,275,1,0;0.5;0,1,739.5004,1.0,995.0,-364.0,1,1
213,740.2585,-1545.3363,-805.0778,1549.7714,744.6936,0.3001,744.9937,0.3668,-275,0.05,275,0.0529,0;0.5;0,1,744.6025,1.0,971.0,-316.0,1,1
214,745.3606,-1550.4383,-805.0778,1551.8889,746.8111,0.3001,747.1113,0.3668,275,0.05,-275,0.0735,0;0.5;0,0,746.7118,0.0,-913.0,-345.0,1,1
215,747.4781,-1552.5558,-805.0778,1554.9068,749.8290,0.3001,750.1292,0.3668,275,0.0088,-275,0.0759,0;0.5;0,0,749.7296,0.0,-903.0,-334.0,1,1
216,750.4960,-1555.5737,-805.0778,1558.3915,753.3138,0.3001,753.6139,0.3668,275,0.0167,-275,0.2088,0;0.5;0,0,753.2144,0.0,-934.0,-348.0,1,1
217,753.9807,-1559.0585,-805.0778,1559.9255,754.8477,0.3001,755.1478,0.3668,-275,0.0088,275,0.0323,0;0.5;0,1,754.7567,1.0,1020.0,-253.0,1,1
218,755.5147,-1560.5924,-805.0778,1562.6766,757.5988,0.3001,757.8990,0.3668,275,0.45,-275,0.6421,1;0;0,0,757.4994,1.0,994.0,-257.0,1,0
219,758.2658,-1563.3435,-805.0778,1567.4452,762.3674,0.3001,762.6676,0.3668,-275,0.0167,275,0.0249,1;0;0,1,762.2764,0.0,-886.0,-357.0,1,0
220,763.0344,-1568.1121,-805.0778,1570.2130,765.1352,0.3001,765.4353,0.3668,275,0.05,-275,0.6,0;0.5;0,0,765.0358,0.0,-870.0,-335.0,1,1
221,765.8022,-1570.8799,-805.0778,1574.2313,769.1535,0.3001,769.4536,0.3668,-275,0.0088,275,0.017,1;0;0,1,769.0626,0.0,-851.0,-343.0,1,0
222,769.8204,-1574.8982,-805.0778,1577.2492,772.1714,0.3001,772.4715,0.3668,275,0.0167,-275,0.0402,0;0.5;0,0,772.0803,0.0,-784.0,-177.0,1,1
223,772.8383,-1577.9161,-805.0778,1579.2500,774.1722,0.3001,774.4723,0.3668,275,0.05,-275,0.0735,0;0.5;0,0,774.0728,0.0,-782.0,-284.0,1,1
224,774.8391,-1579.9169,-805.0778,1587.6700,782.5923,0.3001,782.8924,0.3668,275,0.0088,-275,0.0098,0;0.5;0,0,782.4927,0.0,-771.0,-330.0,1,1
225,783.2592,-1588.3370,-805.0778,1590.1877,785.1100,0.3001,785.4101,0.3668,275,0,-275,0.0082,0;0.5;0,0,785.0107,0.0,-814.0,-295.0,1,1
226,785.7769,-1590.8547,-805.0778,1602.7928,797.7151,0.3001,798.0152,0.3668,-275,0.05,275,0.1171,0;0.5;0,1,797.6158,1.0,921.0,-257.0,1,1
227,798.3820,-1603.4598,-805.0778,1605.9108,800.8330,0.3001,801.1331,0.3668,275,0.45,-275,0.4582,1;0;0,0,800.7419,1.0,913.0,-257.0,1,0
228,801.4999,-1606.5777,-805.0778,1608.0450,802.9672,0.3001,803.2673,0.3668,275,0.45,-275,0.4582,1;0;0,0,802.8760,1.0,956.0,-241.0,1,0
229,803.6341,-1608.7119,-805.0778,1613.7473,808.6695,0.3001,808.9696,0.3668,-275,0,275,0.001,0;0.5;0,1,808.5702,1.0,989.0,-253.0,1,1
230,809.3364,-1614.4142,-805.0778,1616.1983,811.1205,0.3001,811.4206,0.3668,275,0.05,-275,0.0529,0;0.5;0,0,811.0212,0.0,-875.0,-292.0,1,1
231,811.7874,-1616.8652,-805.0778,1618.3991,813.3214,0.3001,813.6215,0.3668,275,0.05,-275,0.0582,0;0.5;0,0,813.2220,0.0,-813.0,-258.0,1,1
232,813.9883,-1619.0661,-805.0778,1620.0665,814.9887,0.3001,815.2888,0.3668,-275,0.45,275,0.5171,1;0;0,1,814.8893,0.0,-805.0,-257.0,1,0
233,815.6557,-1620.7334,-805.0778,1621.8505,816.7728,0.3001,817.0729,0.3668,275,0.05,-275,0.0529,0;0.5;0,0,816.6817,0.0,-815.0,-267.0,1,1
234,817.4397,-1622.5175,-805.0778,1623.8180,818.7402,0.3001,819.0404,0.3668,275,0.2,-275,0.3921,1;0;0,0,818.6492,1.0,972.0,-252.0,1,0
235,819.4072,-1624.4849,-805.0778,1626.2190,821.1412,0.3001,821.4413,0.3668,-275,0.0088,275,0.0117,0;0.5;0,1,821.0501,1.0,941.0,-242.0,1,1
236,821.8081,-1626.8859,-805.0778,1634.2889,829.2111,0.3001,829.5113,0.3668,-275,0.45,275,0.4582,1;0;0,1,829.1201,0.0,-1056.0,-316.0,1,0
237,829.8781,-1634.9558,-805.0778,1636.4398,831.3620,0.3001,831.6621,0.3668,-275,0.05,275,0.2421,1;0;0,1,831.2626,0.0,-956.0,-316.0,1,0
238,832.0289,-1637.1067,-805.0778,1638.3906,833.3128,0.3001,833.6129,0.3668,-275,0.2,275,1,1;0;0,1,833.2216,0.0,-1002.0,-272.0,1,0
239,833.9797,-1639.0575,-805.0778,1645.6935,840.6157,0.3001,840.9159,0.3668,-275,0.0167,275,0.0249,1;0;0,1,840.5248,0.0,-993.0,-306.0,1,0
240,841.2827,-1646.3604,-805.0778,1662.9838,857.9061,0.3001,858.2062,0.3668,-275,0.45,275,0.4735,0;0.5;0,1,857.8151,1.0,1014.0,-238.0,1,1
241,858.5730,-1663.6508,-805.0778,1669.8866,864.8089,0.3001,865.1090,0.3668,-275,0,275,0.0235,1;0;0,1,864.7177,0.0,-1067.0,-340.0,1,0
242,865.4758,-1670.5536,-805.0778,1672.7711,867.6934,0.3001,867.9935,0.3668,-275,0.0088,275,0.2009,0;0.5;0,1,867.6023,1.0,913.0,-276.0,1,1
243,868.3603,-1673.4381,-805.0778,1675.0054,869.9276,0.3001,870.2277,0.3668,-275,0.05,275,0.0582,0;0.5;0,1,869.8365,1.0,891.0,-316.0,1,1
244,870.5945,-1675.6723,-805.0778,1677.4063,872.3286,0.3001,872.6287,0.3668,-275,0.45,275,0.4582,0;0.5;0,1,872.2376,1.0,893.0,-293.0,1,1
245,872.9955,-1678.0733,-805.0778,1683.2420,878.1643,0.3001,878.4644,0.3668,275,0.2,-275,0.75,0;0.5;0,0,878.0731,0.0,-880.0,-384.0,1,1
246,878.8312,-1683.9090,-805.0778,1685.0594,879.9817,0.3001,880.2818,0.3668,-275,0.0167,275,0.0177,1;0;0,1,879.8822,0.0,-888.0,-357.0,1,0
247,880.6486,-1685.7264,-805.0778,1686.9435,881.8658,0.3001,882.1659,0.3668,275,0.05,-275,0.6,0;0.5;0,0,881.7663,0.0,-900.0,-341.0,1,1
248,882.5327,-1687.6105,-805.0778,1687.7438,882.6661,0.3001,882.9662,0.3668,275,0.05,-275,0.6,0;0.5;0,0,882.5667,0.0,-870.0,-331.0,1,1
249,883.3330,-1688.4108,-805.0778,1691.7955,886.7177,0.3001,887.0178,0.3668,-275,0.05,275,0.0529,0;0.5;0,1,886.6184,1.0,956.0,-343.0,1,1
250,887.3847,-1692.4624,-805.0778,1693.6462,888.5685,0.3001,888.8686,0.3668,275,0.0167,-275,0.0196,1;0;0,0,888.4774,1.0,965.0,-307.0,1,0
251,889.2354,-1694.3132,-805.0778,1697.7812,892.7035,0.3001,893.0036,0.3668,-275,0,275,0.001,0;0.5;0,1,892.6124,1.0,953.0,-308.0,1,1
252,893.3704,-1698.4482,-805.0778,1700.8158,895.7380,0.3001,896.0381,0.3668,-275,0.05,275,0.0529,0;0.5;0,1,895.6387,1.0,957.0,-306.0,1,1
253,896.4050,-1701.4827,-805.0778,1702.8499,897.7722,0.3001,898.0723,0.3668,275,0.2,-275,0.3921,1;0;0,0,897.6727,1.0,924.0,-297.0,1,0
254,898.4391,-1703.5169,-805.0778,1709.3192,904.2415,0.3001,904.5416,0.3668,275,0.0167,-275,0.0838,1;0;0,0,904.1505,1.0,959.0,-295.0,1,0
255,904.9084,-1709.9862,-805.0778,1714.4546,909.3769,0.3001,909.6770,0.3668,275,0.0088,-275,0.2009,0;0.5;0,0,909.2775,0.0,-923.0,-388.0,1,1
256,910.0438,-1715.1216,-805.0778,1716.2220,911.1443,0.3001,911.4444,0.3668,275,0,-275,0.0671,0;0.5;0,0,911.0531,0.0,-927.0,-342.0,1,1
257,911.8112,-1716.8890,-805.0778,1718.8564,913.7787,0.3001,914.0788,0.3668,275,0,-275,0.0671,0;0.5;0,0,913.6793,0.0,-933.0,-349.0,1,1
258,914.4456,-1719.5234,-805.0778,1720.0569,914.9791,0.3001,915.2793,0.3668,275,0.0167,-275,0.0177,0;0.5;0,0,914.8797,0.0,-938.0,-359.0,1,1
259,915.6461,-1720.7238,-805.0778,1722.1077,917.0300,0.3001,917.3301,0.3668,-275,0.0088,275,0.2009,1;0;0,1,916.9308,0.0,-821.0,-387.0,1,0
260,917.6969,-1722.7747,-805.0778,1724.1252,919.0474,0.3001,919.3476,0.3668,275,0.2,-275,0.3921,0;0.5;0,0,918.9482,0.0,-903.0,-344.0,1,1
261,919.7144,-1724.7921,-805.0778,1726.1093,921.0316,0.3001,921.3317,0.3668,-275,0,275,0.0671,1;0;0,1,920.9322,0.0,-1007.0,-317.0,1,0
262,921.6985,-1726.7763,-805.0778,1730.4778,925.4000,0.3001,925.7001,0.3668,-275,0.05,275,0.0735,0;0.5;0,1,925.3089,1.0,928.0,-299.0,1,1
263,926.0669,-1731.1447,-805.0778,1733.0288,927.9510,0.3001,928.2512,0.3668,-275,0.0167,275,0.0402,0;0.5;0,1,927.8516,1.0,903.0,-340.0,1,1
264,928.6180,-1733.6957,-805.0778,1735.0296,929.9519,0.3001,930.2520,0.3668,275,0.45,-275,1,1;0;0,0,929.8524,1.0,897.0,-315.0,1,0
265,930.6188,-1735.6966,-805.0778,1737.1305,932.0527,0.3001,932.3528,0.3668,275,0.05,-275,0.0582,0;0.5;0,0,931.9533,0.0,-958.0,-349.0,1,1
266,932.7196,-1737.7974,-805.0778,1739.1646,934.0869,0.3001,934.3870,0.3668,275,0.2,-275,1,0;0.5;0,0,933.9958,0.0,-938.0,-364.0,1,1
267,934.7538,-1739.8316,-805.0778,1741.4656,936.3878,0.3001,936.6879,0.3668,275,0.0088,-275,0.0323,0;0.5;0,0,936.2884,0.0,-932.0,-357.0,1,1
268,937.0547,-1742.1325,-805.0778,1743.6331,938.5553,0.3001,938.8554,0.3668,275,0.0088,-275,0.0323,1;0;0,0,938.4643,1.0,918.0,-291.0,1,0
269,939.2223,-1744.3000,-805.0778,1746.0674,940.9896,0.3001,941.2898,0.3668,-275,0.0167,275,0.0177,0;0.5;0,1,940.8988,1.0,899.0,-315.0,1,1
270,941.6566,-1746.7343,-805.0778,1747.7514,942.6737,0.3001,942.9738,0.3668,275,0.2,-275,0.75,0;0.5;0,0,942.5826,0.0,-1014.0,-347.0,1,1
271,943.3406,-1748.4184,-805.0778,1750.6026,945.5248,0.3001,945.8249,0.3668,275,0,-275,0.0235,0;0.5;0,0,945.4255,0.0,-942.0,-373.0,1,1
272,946.1917,-1751.2695,-805.0778,1752.4033,947.3255,0.3001,947.6257,0.3668,-275,0.0088,275,0.0098,1;0;0,1,947.2261,0.0,-826.0,-415.0,1,0
273,947.9925,-1753.0702,-805.0778,1754.0540,948.9762,0.3001,949.2763,0.3668,-275,0.2,275,0.75,1;0;0,1,948.8768,0.0,-808.0,-413.0,1,0
274,949.6431,-1754.7209,-805.0778,1756.6217,951.5439,0.3001,951.8440,0.3668,-275,0.0167,275,0.0402,1;0;0,1,951.4529,0.0,-884.0,-406.0,1,0
275,952.2108,-1757.2886,-805.0778,1759.3728,954.2950,0.3001,954.5951,0.3668,275,0.05,-275,0.0529,0;0.5;0,0,954.1957,0.0,-911.0,-377.0,1,1
276,954.9620,-1760.0397,-805.0778,1762.0239,956.9461,0.3001,957.2462,0.3668,-275,0.2,275,0.2235,0;0.5;0,1,956.8467,1.0,979.0,-267.0,1,1
277,957.6130,-1762.6908,-805.0778,1764.6416,959.5638,0.3001,959.8639,0.3668,-275,0.45,275,1,0;0.5;0,1,959.4644,1.0,951.0,-274.0,1,1
278,960.2308,-1765.3085,-805.0778,1767.5261,962.4483,0.3001,962.7484,0.3668,-275,0.0088,275,0.0323,0;0.5;0,1,962.3488,1.0,947.0,-287.0,1,1
279,963.1153,-1768.1930,-805.0778,1770.9775,965.8997,0.3001,966.1998,0.3668,275,0.2,-275,1,1;0;0,0,965.8086,1.0,969.0,-262.0,1,0
280,966.5666,-1771.6444,-805.0778,1773.8286,968.7509,0.3001,969.0510,0.3668,275,0.05,-275,0.0735,1;0;0,0,968.6599,1.0,932.0,-297.0,1,0
281,969.4178,-1774.4956,-805.0778,1776.3130,971.2352,0.3001,971.5353,0.3668,275,0,-275,0.1921,0;0.5;0,0,971.1441,0.0,-936.0,-386.0,1,1
282,971.9021,-1776.9799,-805.0778,1779.2308,974.1530,0.3001,974.4532,0.3668,275,0.0088,-275,0.017,0;0.5;0,0,974.0619,0.0,-846.0,-408.0,1,1
283,974.8200,-1779.8977,-805.0778,1780.6647,975.5870,0.3001,975.8871,0.3668,275,0.0167,-275,0.0838,0;0.5;0,0,975.4959,0.0,-818.0,-413.0,1,1
284,976.2539,-1781.3317,-805.0778,1782.8823,977.8045,0.3001,978.1046,0.3668,275,0.45,-275,1,0;0.5;0,0,977.7135,0.0,-835.0,-393.0,1,1
285,978.4715,-1783.5492,-805.0778,1784.9665,979.8887,0.3001,980.1888,0.3668,275,0.05,-275,0.1171,0;0.5;0,0,979.7976,0.0,-836.0,-389.0,1,1
286,980.5556,-1785.6334,-805.0778,1786.2503,981.1725,0.3001,981.4727,0.3668,-275,0.2,275,0.2235,1;0;0,1,981.0815,0.0,-850.0,-390.0,1,0
287,981.8395,-1786.9172,-805.0778,1789.6350,984.5572,0.3001,984.8574,0.3668,275,0,-275,0.0082,1;0;0,0,984.4579,1.0,956.0,-296.0,1,0
288,985.2242,-1790.3019,-805.0778,1797.4882,992.4104,0.3001,992.7105,0.3668,-275,0,275,0.0082,1;0;0,1,992.3194,0.0,-889.0,-396.0,1,0
289,993.0774,-1798.1551,-805.0778,1799.9558,994.8781,0.3001,995.1782,0.3668,275,0.45,-275,0.4582,0;0.5;0,0,994.7871,0.0,-933.0,-392.0,1,1
290,995.5450,-1800.6228,-805.0778,1801.9233,996.8455,0.3001,997.1457,0.3668,275,0.2,-275,0.3921,1;0;0,0,996.7546,1.0,980.0,-274.0,1,0
291,997.5125,-1802.5902,-805.0778,1803.9741,998.8964,0.3001,999.1965,0.3668,275,0.0088,-275,0.017,0;0.5;0,0,998.8054,0.0,-924.0,-406.0,1,1
292,999.5633,-1804.6411,-805.0778,1805.7082,1000.6304,0.3001,1000.9305,0.3668,275,0.2,-275,0.2235,0;0.5;0,0,1000.5310,0.0,-895.0,-391.0,1,1
293,1001.2973,-1806.3751,-805.0778,1815.9456,1010.8679,0.3001,1011.1680,0.3668,-275,0.0167,275,0.0177,0;0.5;0,1,1010.7767,1.0,951.0,-352.0,1,1
294,1011.5348,-1816.6126,-805.0778,1824.1490,1019.0712,0.3001,1019.3713,0.3668,-275,0.45,275,0.4735,1;0;0,1,1018.9801,0.0,-817.0,-400.0,1,0
295,1019.7381,-1824.8159,-805.0778,1826.4999,1021.4221,0.3001,1021.7223,0.3668,275,0.2,-275,0.2235,0;0.5;0,0,1021.3229,0.0,-822.0,-370.0,1,1
296,1022.0891,-1827.1668,-805.0778,1848.9090,1043.8312,0.3001,1044.1313,0.3668,275,0.05,-275,0.0582,0;0.5;0,0,1043.7403,0.0,-1095.0,-396.0,1,1
297,1044.4981,-1849.5759,-805.0778,1851.6767,1046.5990,0.3001,1046.8991,0.3668,275,0.2,-275,0.2235,1;0;0,0,1046.4996,1.0,906.0,-359.0,1,0
298,1047.2659,-1852.3437,-805.0778,1853.7276,1048.6498,0.3001,1048.9499,0.3668,-275,0.0088,275,0.2009,0;0.5;0,1,1048.5588,1.0,913.0,-373.0,1,1
299,1049.3167,-1854.3945,-805.0778,1855.6784,1050.6006,0.3001,1050.9007,0.3668,275,0.45,-275,0.6421,0;0.5;0,0,1050.5012,0.0,-888.0,-387.0,1,1
300,1051.2675,-1856.3453,-805.0778,1857.5458,1052.4680,0.3001,1052.7681,0.3668,-275,0.0088,275,0.0117,1;0;0,1,1052.3769,0.0,-817.0,-388.0,1,0
301,1053.1349,-1858.2127,-805.0778,1859.3465,1054.2687,0.3001,1054.5689,0.3668,-275,0.45,275,0.6421,1;0;0,1,1054.1776,0.0,-807.0,-371.0,1,0
302,1054.9357,-1860.0134,-805.0778,1861.1973,1056.1195,0.3001,1056.4196,0.3668,275,0.45,-275,1,0;0.5;0,0,1056.0201,0.0,-801.0,-366.0,1,1
303,1056.7864,-1861.8642,-805.0778,1866.1993,1061.1215,0.3001,1061.4216,0.3668,-275,0.0167,275,0.0249,1;0;0,1,1061.0304,0.0,-784.0,-383.0,1,0
304,1061.7884,-1866.8662,-805.0778,1867.9500,1062.8722,0.3001,1063.1723,0.3668,-275,0.05,275,0.6,1;0;0,1,1062.7727,0.0,-794.0,-380.0,1,0
305,1063.5391,-1868.6169,-805.0778,1870.7178,1065.6400,0.3001,1065.9401,0.3668,275,0.2,-275,1,0;0.5;0,0,1065.5407,0.0,-775.0,-345.0,1,1
306,1066.3069,-1871.3847,-805.0778,1872.4851,1067.4074,0.3001,1067.7075,0.3668,-275,0.45,275,0.6421,1;0;0,1,1067.3163,0.0,-801.0,-305.0,1,0
307,1068.0743,-1873.1521,-805.0778,1875.0862,1070.0084,0.3001,1070.3086,0.3668,-275,0,275,0.1921,0;0.5;0,1,1069.9091,1.0,918.0,-296.0,1,1
308,1070.6754,-1875.7531,-805.0778,1878.1708,1073.0930,0.3001,1073.3931,0.3668,-275,0,275,0.1921,0;0.5;0,1,1073.0018,1.0,907.0,-311.0,1,1
309,1073.7599,-1878.8377,-805.0778,1888.6083,1083.5306,0.3001,1083.8307,0.3668,-275,0,275,0.0029,1;0;0,1,1083.4310,0.0,-959.0,-420.0,1,0
310,1084.1975,-1889.2753,-805.0778,1890.4091,1085.3313,0.3001,1085.6314,0.3668,275,0.05,-275,0.0529,0;0.5;0,0,1085.2319,0.0,-916.0,-342.0,1,1
311,1085.9982,-1891.0760,-805.0778,1892.2931,1087.2154,0.3001,1087.5155,0.3668,-275,0.0167,275,0.0177,0;0.5;0,1,1087.1159,1.0,916.0,-347.0,1,1
312,1087.8823,-1892.9601,-805.0778,1895.2610,1090.1832,0.3001,1090.4834,0.3668,275,0.45,-275,0.4582,1;0;0,0,1090.0922,1.0,879.0,-340.0,1,0
313,1090.8502,-1895.9279,-805.0778,1896.7950,1091.7172,0.3001,1092.0173,0.3668,275,0.0167,-275,0.0196,0;0.5;0,0,1091.2425,0.0,-1127.0,-242.0,1,1
314,1092.3841,-1897.4619,-805.0778,1898.5123,1093.4346,0.3001,1093.7347,0.3668,-275,0.2,275,0.2082,1;0;0,1,1093.3352,0.0,-923.0,-416.0,1,0
315,1094.1015,-1899.1793,-805.0778,1904.9649,1099.8872,0.3001,1100.1873,0.3668,275,0.0088,-275,0.0098,0;0.5;0,0,1099.7877,0.0,-873.0,-402.0,1,1
316,1100.5541,-1905.6319,-805.0778,1910.5338,1105.4561,0.3001,1105.7562,0.3668,-275,0.2,275,0.2082,0;0.5;0,1,1105.3567,1.0,868.0,-335.0,1,1
317,1106.1230,-1911.2008,-805.0778,1918.0202,1112.9424,0.3001,1113.2426,0.3668,-275,0.2,275,0.3921,0;0.5;0,1,1112.8181,1.0,1165.0,-232.0,1,1
318,1113.6094,-1918.6871,-805.0778,1919.6208,1114.5431,0.3001,1114.8432,0.3668,275,0.0088,-275,0.0759,1;0;0,0,1114.2102,1.0,1194.0,-378.0,1,0
319,1115.2100,-1920.2878,-805.0778,1920.7713,1115.6935,0.3001,1115.9937,0.3668,275,0.0088,-275,0.0098,0;0.5;0,0,1115.5942,0.0,-772.0,-314.0,1,1
320,1116.3605,-1921.4382,-805.0778,1923.0222,1117.9445,0.3001,1118.2446,0.3668,275,0.0088,-275,0.0117,0;0.5;0,0,1117.8450,0.0,-774.0,-412.0,1,1
321,1118.6114,-1923.6892,-805.0778,1926.3736,1121.2958,0.3001,1121.5959,0.3668,275,0.2,-275,1,0;0.5;0,0,1121.2047,0.0,-769.0,-290.0,1,1
322,1121.9627,-1927.0405,-805.0778,1928.8579,1123.7801,0.3001,1124.0803,0.3668,275,0.05,-275,0.1171,0;0.5;0,0,1123.6891,0.0,-793.0,-243.0,1,1
323,1124.4471,-1929.5248,-805.0778,1931.7257,1126.6480,0.3001,1126.9481,0.3668,275,0.2,-275,1,1;0;0,0,1126.5568,1.0,909.0,-349.0,1,0
324,1127.3149,-1932.3927,-805.0778,1943.6639,1138.5861,0.3001,1138.8862,0.3668,275,0.0088,-275,0.2009,1;0;0,0,1138.4950,1.0,1037.0,-293.0,1,0
325,1139.2531,-1944.3308,-805.0778,1946.5817,1141.5040,0.3001,1141.8041,0.3668,-275,0.0167,275,0.0838,0;0.5;0,1,1141.4047,1.0,912.0,-344.0,1,1
326,1142.1709,-1947.2487,-805.0778,1949.3328,1144.2551,0.3001,1144.5552,0.3668,-275,0.05,275,0.0735,1;0;0,1,1144.1557,0.0,-754.0,-363.0,1,0
327,1144.9220,-1949.9998,-805.0778,1951.6671,1146.5894,0.3001,1146.8895,0.3668,-275,0.0088,275,0.2009,1;0;0,1,1146.4983,0.0,-765.0,-364.0,1,0
328,1147.2563,-1952.3341,-805.0778,1953.8513,1148.7736,0.3001,1149.0737,0.3668,275,0,-275,0.0671,0;0.5;0,0,1148.6741,0.0,-756.0,-360.0,1,1
329,1149.4405,-1954.5183,-805.0778,1956.1689,1151.0912,0.3001,1151.3913,0.3668,275,0.0167,-275,0.2088,0;0.5;0,0,1151.0001,0.0,-743.0,-293.0,1,1
330,1151.7581,-1956.8359,-805.0778,1958.1197,1153.0420,0.3001,1153.3421,0.3668,275,0.05,-275,0.6,0;0.5;0,0,1152.9508,0.0,-729.0,-304.0,1,1
331,1153.7089,-1958.7867,-805.0778,1960.0872,1155.0094,0.3001,1155.3095,0.3668,275,0.05,-275,0.6,0;0.5;0,0,1154.9100,0.0,-864.0,-265.0,1,1
332,1155.6764,-1960.7541,-805.0778,1973.0257,1167.9480,0.3001,1168.2481,0.3668,275,0.0088,-275,0.0759,1;0;0,0,1167.8484,1.0,920.0,-310.0,1,0
333,1168.6149,-1973.6927,-805.0778,1975.6768,1170.5990,0.3001,1170.8992,0.3668,-275,0.0167,275,0.0177,1;0;0,1,1170.4997,0.0,-814.0,-319.0,1,0
334,1171.2660,-1976.3437,-805.0778,1977.8110,1172.7332,0.3001,1173.0334,0.3668,-275,0.0088,275,0.0323,1;0;0,1,1172.6338,0.0,-771.0,-315.0,1,0
335,1173.4002,-1978.4779,-805.0778,1979.6451,1174.5673,0.3001,1174.8674,0.3668,275,0.2,-275,0.2671,0;0.5;0,0,1174.4679,0.0,-774.0,-280.0,1,1
336,1175.2343,-1980.3120,-805.0778,1981.3791,1176.3013,0.3001,1176.6015,0.3668,275,0.45,-275,0.4735,0;0.5;0,0,1176.2102,0.0,-757.0,-278.0,1,1
337,1176.9683,-1982.0461,-805.0778,1983.8801,1178.8024,0.3001,1179.1025,0.3668,275,0.0167,-275,0.2088,1;0;0,0,1178.7113,1.0,894.0,-289.0,1,0
338,1179.4693,-1984.5471,-805.0778,1985.7809,1180.7031,0.3001,1181.0032,0.3668,275,0.0088,-275,0.0098,1;0;0,0,1180.6037,1.0,906.0,-297.0,1,0
339,1181.3701,-1986.4478,-805.0778,1989.1156,1184.0378,0.3001,1184.3379,0.3668,-275,0.0167,275,0.0177,1;0;0,1,1183.9469,0.0,-782.0,-284.0,1,0
340,1184.7047,-1989.7825,-805.0778,1990.6328,1185.5551,0.3001,1185.8552,0.3668,275,0.05,-275,0.6,0;0.5;0,0,1185.4639,0.0,-784.0,-288.0,1,1
341,1186.2220,-1991.2998,-805.0778,1992.0834,1187.0057,0.3001,1187.3058,0.3668,-275,0.45,275,1,1;0;0,1,1186.9145,0.0,-783.0,-277.0,1,0
342,1187.6726,-1992.7504,-805.0778,1994.0842,1189.0065,0.3001,1189.3066,0.3668,-275,0.2,275,0.2671,1;0;0,1,1188.9069,0.0,-773.0,-307.0,1,0
343,1189.6734,-1994.7512,-805.0778,1998.3193,1193.2415,0.3001,1193.5416,0.3668,-275,0.05,275,0.0529,1;0;0,1,1193.1506,0.0,-807.0,-351.0,1,0
344,1193.9085,-1998.9862,-805.0778,2000.7703,1195.6925,0.3001,1195.9926,0.3668,275,0,-275,0.0235,1;0;0,0,1195.6015,1.0,949.0,-284.0,1,0
345,1196.3594,-2001.4372,-805.0778,2003.5047,1198.4269,0.3001,1198.7271,0.3668,-275,0.0167,275,0.2088,0;0.5;0,1,1198.3359,1.0,922.0,-318.0,1,1
346,1199.0939,-2004.1716,-805.0778,2006.3392,1201.2614,0.3001,1201.5615,0.3668,275,0.0167,-275,0.0177,0;0.5;0,0,1201.1703,0.0,-801.0,-338.0,1,1
347,1201.9284,-2007.0061,-805.0778,2008.2733,1203.1955,0.3001,1203.4957,0.3668,-275,0.05,275,0.6,1;0;0,1,1203.0960,0.0,-779.0,-328.0,1,0
348,1203.8625,-2008.9402,-805.0778,2010.9577,1205.8800,0.3001,1206.1801,0.3668,-275,0.2,275,0.2671,0;0.5;0,1,1205.7805,1.0,922.0,-314.0,1,1
349,1206.5469,-2011.6247,-805.0778,2013.1419,1208.0642,0.3001,1208.3643,0.3668,-275,0.05,275,0.6,0;0.5;0,1,1207.9647,1.0,951.0,-298.0,1,1
350,1208.7311,-2013.8089,-805.0778,2018.4441,1213.3663,0.3001,1213.6664,0.3668,275,0.45,-275,0.4735,1;0;0,0,1213.2669,1.0,916.0,-301.0,1,0
351,1214.0332,-2019.1110,-805.0778,2024.9634,1219.8856,0.3001,1220.1857,0.3668,-275,0.45,275,0.4582,0;0.5;0,1,1219.7946,1.0,912.0,-336.0,1,1
352,1220.5525,-2025.6303,-805.0778,2026.8808,1221.8030,0.3001,1222.1032,0.3668,275,0.05,-275,0.0582,0;0.5;0,0,1221.7119,0.0,-776.0,-330.0,1,1
353,1222.4700,-2027.5477,-805.0778,2029.2651,1224.1873,0.3001,1224.4875,0.3668,275,0.0167,-275,0.2088,0;0.5;0,0,1224.0879,0.0,-745.0,-351.0,1,1
354,1224.8543,-2029.9320,-805.0778,2030.7824,1225.7046,0.3001,1226.0047,0.3668,275,0.0167,-275,0.0402,0;0.5;0,0,1225.6136,0.0,-749.0,-359.0,1,1
355,1226.3716,-2031.4493,-805.0778,2032.1830,1227.1052,0.3001,1227.4053,0.3668,-275,0.05,275,0.0735,1;0;0,1,1227.0058,0.0,-734.0,-383.0,1,0
356,1227.7721,-2032.8499,-805.0778,2035.1008,1230.0230,0.3001,1230.3231,0.3668,275,0.2,-275,0.2082,1;0;0,0,1229.9236,1.0,894.0,-292.0,1,0
357,1230.6900,-2035.7677,-805.0778,2039.4692,1234.3915,0.3001,1234.6916,0.3668,-275,0.0088,275,0.0098,0;0.5;0,1,1234.2919,1.0,895.0,-293.0,1,1
358,1235.0584,-2040.1362,-805.0778,2041.8202,1236.7424,0.3001,1237.0425,0.3668,-275,0.45,275,0.5171,0;0.5;0,1,1236.6430,1.0,889.0,-296.0,1,1
359,1237.4093,-2042.4871,-805.0778,2044.8881,1239.8103,0.3001,1240.1104,0.3668,-275,0.2,275,0.2235,1;0;0,1,1239.7109,0.0,-742.0,-324.0,1,0
360,1240.4772,-2045.5550,-805.0778,2048.0393,1242.9616,0.3001,1243.2617,0.3668,-275,0.0088,275,0.0117,1;0;0,1,1242.8621,0.0,-711.0,-326.0,1,0
361,1243.6285,-2048.7063,-805.0778,2050.7071,1245.6293,0.3001,1245.9294,0.3668,275,0.05,-275,0.0582,0;0.5;0,0,1245.5300,0.0,-737.0,-277.0,1,1
362,1246.2963,-2051.3740,-805.0778,2051.8576,1246.7798,0.3001,1247.0799,0.3668,275,0.2,-275,0.2235,0;0.5;0,0,1246.6888,0.0,-751.0,-242.0,1,1
363,1247.4467,-2052.5245,-805.0778,2059.6274,1254.5496,0.3001,1254.8497,0.3668,275,0.05,-275,0.0735,1;0;0,0,1254.4501,1.0,937.0,-289.0,1,0
364,1255.2165,-2060.2943,-805.0778,2062.1617,1257.0839,0.3001,1257.3841,0.3668,-275,0,275,0.0671,1;0;0,1,1256.9846,0.0,-778.0,-273.0,1,0
365,1257.7509,-2062.8287,-805.0778,2065.8465,1260.7688,0.3001,1261.0689,0.3668,-275,0.45,275,0.5171,1;0;0,1,1260.5526,0.0,-1186.0,-236.0,1,0
366,1261.4357,-2066.5135,-805.0778,2070.6985,1265.6207,0.3001,1265.9208,0.3668,-275,0.45,275,0.6421,1;0;0,1,1265.5297,0.0,-818.0,34.0,1,0
367,1266.2877,-2071.3654,-805.0778,2073.0661,1267.9883,0.3001,1268.2885,0.3668,-275,0,275,0.0029,1;0;0,1,1267.8973,0.0,-740.0,-264.0,1,0
368,1268.6553,-2073.7331,-805.0778,2075.8339,1270.7561,0.3001,1271.0563,0.3668,-275,0,275,0.001,1;0;0,1,1270.6650,0.0,-755.0,-331.0,1,0
369,1271.4231,-2076.5008,-805.0778,2077.6346,1272.5569,0.3001,1272.8570,0.3668,-275,0,275,0.0029,0;0.5;0,1,1272.4576,1.0,1004.0,-264.0,1,1
370,1273.2238,-2078.3016,-805.0778,2079.9189,1274.8411,0.3001,1275.1412,0.3668,-275,0.2,275,0.75,0;0.5;0,1,1274.7417,1.0,988.0,-288.0,1,1
371,1275.5080,-2080.5858,-805.0778,2082.4032,1277.3254,0.3001,1277.6256,0.3668,275,0.2,-275,0.75,1;0;0,0,1277.2343,1.0,990.0,-285.0,1,0
372,1277.9924,-2083.0702,-805.0778,2084.8042,1279.7264,0.3001,1280.0265,0.3668,-275,0.0167,275,0.0196,0;0.5;0,1,1279.6270,1.0,984.0,-281.0,1,1
373,1280.3934,-2085.4711,-805.0778,2087.3385,1282.2608,0.3001,1282.5609,0.3668,275,0.45,-275,0.6421,1;0;0,0,1282.1696,1.0,995.0,-263.0,1,0
374,1282.9277,-2088.0055,-805.0778,2088.8391,1283.7614,0.3001,1284.0615,0.3668,-275,0.0088,275,0.2009,1;0;0,1,1283.6621,0.0,-761.0,-335.0,1,0
375,1284.4283,-2089.5061,-805.0778,2090.7232,1285.6455,0.3001,1285.9456,0.3668,275,0,-275,0.0235,0;0.5;0,0,1285.5544,0.0,-712.0,-357.0,1,1
376,1286.3124,-2091.3902,-805.0778,2092.0071,1286.9293,0.3001,1287.2294,0.3668,-275,0,275,0.0235,1;0;0,1,1286.8384,0.0,-754.0,-321.0,1,0
377,1287.5963,-2092.6740,-805.0778,2094.6081,1289.5304,0.3001,1289.8305,0.3668,-275,0.2,275,1,1;0;0,1,1289.4393,0.0,-657.0,-329.0,1,0
378,1290.1973,-2095.2751,-805.0778,2096.0254,1290.9476,0.3001,1291.2477,0.3668,275,0.0088,-275,0.0098,0;0.5;0,0,1290.8482,0.0,-911.0,-280.0,1,1
379,1291.6145,-2096.6923,-805.0778,2100.0603,1294.9826,0.3001,1295.2827,0.3668,275,0.2,-275,0.2671,0;0.5;0,0,1294.8832,0.0,-851.0,-335.0,1,1
380,1295.6495,-2100.7273,-805.0778,2101.5943,1296.5165,0.3001,1296.8166,0.3668,-275,0.45,275,0.4735,1;0;0,1,1296.4255,0.0,-719.0,-370.0,1,0
381,1297.1835,-2102.2612,-805.0778,2103.6284,1298.5507,0.3001,1298.8508,0.3668,275,0.0167,-275,0.0249,1;0;0,0,1298.4596,1.0,997.0,-262.0,1,0
382,1299.2176,-2104.2954,-805.0778,2105.8627,1300.7849,0.3001,1301.0850,0.3668,275,0.2,-275,0.2671,1;0;0,0,1300.6856,1.0,970.0,-303.0,1,0
383,1301.4519,-2106.5296,-805.0778,2108.1303,1303.0525,0.3001,1303.3526,0.3668,-275,0.2,275,0.75,0;0.5;0,1,1302.9530,1.0,831.0,-324.0,1,1
384,1303.7194,-2108.7972,-805.0778,2109.6475,1304.5698,0.3001,1304.8699,0.3668,-275,0.0167,275,0.2088,0;0.5;0,1,1304.4786,1.0,886.0,-299.0,1,1
385,1305.2367,-2110.3145,-805.0778,2112.1486,1307.0708,0.3001,1307.3709,0.3668,-275,0.2,275,0.2671,1;0;0,1,1306.9714,0.0,-744.0,-342.0,1,0
386,1307.7377,-2112.8155,-805.0778,2113.3324,1308.2546,0.3001,1308.5547,0.3668,275,0.0088,-275,0.017,0;0.5;0,0,1308.1551,0.0,-720.0,-340.0,1,1
387,1308.9215,-2113.9993,-805.0778,2115.4499,1310.3721,0.3001,1310.6722,0.3668,-275,0.45,275,1,1;0;0,1,1310.2726,0.0,-808.0,-292.0,1,0
388,1311.0391,-2116.1168,-805.0778,2117.5507,1312.4730,0.3001,1312.7731,0.3668,275,0.0167,-275,0.0838,0;0.5;0,0,1312.3819,0.0,-807.0,-287.0,1,1
389,1313.1399,-2118.2177,-805.0778,2119.3848,1314.3070,0.3001,1314.6072,0.3668,275,0.45,-275,0.5171,0;0.5;0,0,1314.2075,0.0,-814.0,-289.0,1,1
390,1314.9740,-2120.0517,-805.0778,2121.8024,1316.7247,0.3001,1317.0248,0.3668,275,0,-275,0.0235,1;0;0,0,1316.6338,1.0,928.0,-275.0,1,0
391,1317.3916,-2122.4694,-805.0778,2124.0700,1318.9923,0.3001,1319.2924,0.3668,-275,0.05,275,0.2421,0;0.5;0,1,1318.8929,1.0,934.0,-263.0,1,1
392,1319.6592,-2124.7370,-805.0778,2126.2209,1321.1431,0.3001,1321.4432,0.3668,-275,0,275,0.0029,0;0.5;0,1,1321.0437,1.0,922.0,-268.0,1,1
393,1321.8101,-2126.8878,-805.0778,2128.2550,1323.1773,0.3001,1323.4774,0.3668,-275,0.2,275,0.2082,0;0.5;0,1,1323.0861,1.0,928.0,-267.0,1,1
394,1323.8442,-2128.9220,-805.0778,2130.9395,1325.8617,0.3001,1326.1618,0.3668,-275,0.05,275,0.0582,1;0;0,1,1325.7706,0.0,-697.0,-345.0,1,0
395,1326.5286,-2131.6064,-805.0778,2133.7906,1328.7128,0.3001,1329.0130,0.3668,-275,0.0088,275,0.017,0;0.5;0,1,1328.6219,1.0,934.0,-286.0,1,1
396,1329.3798,-2134.4576,-805.0778,2135.8414,1330.7637,0.3001,1331.0638,0.3668,275,0.05,-275,0.0735,1;0;0,0,1330.6643,1.0,917.0,-287.0,1,0
397,1331.4306,-2136.5084,-805.0778,2137.9590,1332.8812,0.3001,1333.1813,0.3668,-275,0.2,275,0.2235,0;0.5;0,1,1332.7901,1.0,931.0,-265.0,1,1
398,1333.5481,-2138.6259,-805.0778,2140.2432,1335.1655,0.3001,1335.4656,0.3668,275,0,-275,0.1921,0;0.5;0,0,1335.0743,0.0,-728.0,-321.0,1,1
399,1335.8324,-2140.9102,-805.0778,2143.1444,1338.0666,0.3001,1338.3667,0.3668,275,0.0088,-275,0.0098,0;0.5;0,0,1337.9756,0.0,-759.0,-299.0,1,1
400,1338.7336,-2143.8113,-805.0778,2157.2501,1352.1723,0.3001,1352.4724,0.3668,-275,0,275,0.0671,1;0;0,1,1352.0813,0.0,-717.0,-336.0,1,0
401,1352.8392,-2157.9170,-805.0778,2159.1175,1354.0397,0.3001,1354.3399,0.3668,-275,0,275,0.0082,1;0;0,1,1353.9403,0.0,-706.0,-349.0,1,0
402,1354.7067,-2159.7844,-805.0778,2160.8182,1355.7404,0.3001,1356.0405,0.3668,-275,0.0088,275,0.017,0;0.5;0,1,1355.6410,1.0,957.0,-306.0,1,1
403,1356.4074,-2161.4851,-805.0778,2162.4855,1357.4078,0.3001,1357.7079,0.3668,275,0.0167,-275,0.0196,1;0;0,0,1357.3083,1.0,917.0,-309.0,1,0
404,1358.0747,-2163.1525,-805.0778,2164.3529,1359.2752,0.3001,1359.5753,0.3668,-275,0.0167,275,0.0402,0;0.5;0,1,1359.1757,1.0,922.0,-316.0,1,1
405,1359.9421,-2165.0199,-805.0778,2165.7702,1360.6924,0.3001,1360.9925,0.3668,275,0.05,-275,0.2421,0;0.5;0,0,1360.6015,0.0,-801.0,-277.0,1,1
406,1361.3594,-2166.4371,-805.0778,2167.8210,1362.7432,0.3001,1363.0434,0.3668,275,0.05,-275,0.0582,0;0.5;0,0,1362.6521,0.0,-776.0,-267.0,1,1
407,1363.4102,-2168.4879,-805.0778,2169.9552,1364.8774,0.3001,1365.1776,0.3668,-275,0.2,275,0.2671,1;0;0,1,1364.7863,0.0,-780.0,-266.0,1,0
408,1365.5444,-2170.6221,-805.0778,2172.5563,1367.4785,0.3001,1367.7786,0.3668,275,0,-275,0.0082,0;0.5;0,0,1367.3874,0.0,-802.0,-249.0,1,1
409,1368.1454,-2173.2232,-805.0778,2176.4412,1371.3634,0.3001,1371.6635,0.3668,-275,0,275,0.1921,0;0.5;0,1,1371.2640,1.0,927.0,-229.0,1,1
410,1372.0303,-2177.1081,-805.0778,2178.6754,1373.5976,0.3001,1373.8977,0.3668,-275,0.0167,275,0.2088,0;0.5;0,1,1373.4982,1.0,902.0,-261.0,1,1
411,1374.2646,-2179.3423,-805.0778,2181.1431,1376.0653,0.3001,1376.3654,0.3668,-275,0.0167,275,0.2088,0;0.5;0,1,1375.9659,1.0,916.0,-268.0,1,1
412,1376.7322,-2181.8100,-805.0778,2183.4440,1378.3662,0.3001,1378.6663,0.3668,275,0,-275,0.001,1;0;0,0,1378.2752,1.0,902.0,-280.0,1,0
413,1379.0331,-2184.1109,-805.0778,2185.4615,1380.3837,0.3001,1380.6838,0.3668,275,0.05,-275,0.0529,1;0;0,0,1380.2843,1.0,885.0,-295.0,1,0
414,1381.0506,-2186.1284,-805.0778,2187.5456,1382.4679,0.3001,1382.7680,0.3668,-275,0.45,275,0.5171,0;0.5;0,1,1382.3684,1.0,876.0,-306.0,1,1
415,1383.1348,-2188.2126,-805.0778,2190.2300,1385.1523,0.3001,1385.4524,0.3668,275,0.0088,-275,0.0323,0;0.5;0,0,1385.0612,0.0,-785.0,-276.0,1,1
416,1385.8192,-2190.8970,-805.0778,2192.3309,1387.2531,0.3001,1387.5533,0.3668,275,0.05,-275,0.0735,0;0.5;0,0,1387.1620,0.0,-677.0,-358.0,1,1
417,1387.9201,-2192.9978,-805.0778,2193.6147,1388.5370,0.3001,1388.8371,0.3668,-275,0.0167,275,0.0196,1;0;0,1,1388.4376,0.0,-710.0,-340.0,1,0
418,1389.2039,-2194.2817,-805.0778,2194.6652,1389.5874,0.3001,1389.8875,0.3668,275,0.0088,-275,0.0117,0;0.5;0,0,1389.4880,0.0,-713.0,-345.0,1,1
419,1390.2543,-2195.3321,-805.0778,2196.2325,1391.1547,0.3001,1391.4548,0.3668,275,0.0167,-275,0.0402,1;0;0,0,1391.0553,1.0,925.0,-257.0,1,0
420,1391.8216,-2196.8994,-805.0778,2198.8335,1393.7558,0.3001,1394.0559,0.3668,-275,0.0167,275,0.0402,1;0;0,1,1393.6647,0.0,-722.0,-311.0,1,0
421,1394.4227,-2199.5005,-805.0778,2206.7534,1401.6756,0.3001,1401.9757,0.3668,-275,0.0088,275,0.017,1;0;0,1,1401.5761,0.0,-942.0,-201.0,1,0
422,1402.3425,-2207.4203,-805.0778,2208.9709,1403.8932,0.3001,1404.1933,0.3668,275,0.45,-275,1,0;0.5;0,0,1403.7938,0.0,-870.0,-214.0,1,1
423,1404.5601,-2209.6379,-805.0778,2210.5716,1405.4938,0.3001,1405.7939,0.3668,-275,0.45,275,1,1;0;0,1,1405.4027,0.0,-850.0,-247.0,1,0
424,1406.1608,-2211.2385,-805.0778,2212.1722,1407.0945,0.3001,1407.3946,0.3668,275,0.45,-275,1,0;0.5;0,0,1406.9950,0.0,-822.0,-251.0,1,1
425,1407.7614,-2212.8392,-805.0778,2213.7395,1408.6618,0.3001,1408.9619,0.3668,275,0.05,-275,0.0735,1;0;0,0,1408.5706,1.0,965.0,-240.0,1,0
426,1409.3287,-2214.4065,-805.0778,2216.2405,1411.1628,0.3001,1411.4629,0.3668,-275,0,275,0.0235,0;0.5;0,1,1411.0717,1.0,813.0,-221.0,1,1
427,1411.8297,-2216.9075,-805.0778,2218.2413,1413.1636,0.3001,1413.4637,0.3668,-275,0.0088,275,0.0098,0;0.5;0,1,1413.0642,1.0,807.0,-271.0,1,1
428,1413.8305,-2218.9083,-805.0778,2220.4589,1415.3811,0.3001,1415.6813,0.3668,275,0.2,-275,0.2082,1;0;0,0,1415.2818,1.0,781.0,-258.0,1,0
429,1416.0481,-2221.1258,-805.0778,2223.2600,1418.1823,0.3001,1418.4824,0.3668,-275,0,275,0.0671,1;0;0,1,1418.0828,0.0,-791.0,-306.0,1,0
430,1418.8492,-2223.9270,-805.0778,2226.2612,1421.1835,0.3001,1421.4836,0.3668,275,0.0167,-275,0.0838,0;0.5;0,0,1421.0841,0.0,-715.0,-348.0,1,1
431,1421.8504,-2226.9282,-805.0778,2228.0120,1422.9342,0.3001,1423.2343,0.3668,275,0,-275,0.0671,0;0.5;0,0,1422.8347,0.0,-713.0,-301.0,1,1
432,1423.6011,-2228.6789,-805.0778,2230.1962,1425.1184,0.3001,1425.4185,0.3668,275,0.45,-275,0.4735,0;0.5;0,0,1425.0275,0.0,-719.0,-292.0,1,1
433,1425.7853,-2230.8631,-805.0778,2232.7305,1427.6528,0.3001,1427.9529,0.3668,275,0.2,-275,0.3921,0;0.5;0,0,1427.5616,0.0,-743.0,-300.0,1,1
434,1428.3197,-2233.3975,-805.0778,2234.5979,1429.5202,0.3001,1429.8203,0.3668,-275,0.45,275,0.4735,1;0;0,1,1429.4208,0.0,-778.0,-262.0,1,0
435,1430.1871,-2235.2649,-805.0778,2236.7988,1431.7211,0.3001,1432.0212,0.3668,275,0.05,-275,0.2421,1;0;0,0,1431.6301,1.0,905.0,-185.0,1,0
436,1432.3880,-2237.4658,-805.0778,2239.7667,1434.6889,0.3001,1434.9890,0.3668,275,0.0088,-275,0.017,1;0;0,0,1434.5979,1.0,881.0,-188.0,1,0
437,1435.3559,-2240.4336,-805.0778,2241.9676,1436.8898,0.3001,1437.1899,0.3668,-275,0.0088,275,0.0759,1;0;0,1,1436.7905,0.0,-760.0,-297.0,1,0
438,1437.5568,-2242.6345,-805.0778,2248.3702,1443.2924,0.3001,1443.5925,0.3668,-275,0.2,275,0.2671,1;0;0,1,1443.2012,0.0,-819.0,-216.0,1,0
439,1443.9593,-2249.0371,-805.0778,2249.9041,1444.8263,0.3001,1445.1265,0.3668,275,0,-275,0.001,0;0.5;0,0,1444.7353,0.0,-802.0,-247.0,1,1
440,1445.4933,-2250.5711,-805.0778,2252.0883,1447.0106,0.3001,1447.3107,0.3668,275,0.45,-275,0.4582,0;0.5;0,0,1446.9196,0.0,-797.0,-257.0,1,1
441,1447.6775,-2252.7553,-805.0778,2255.5230,1450.4453,0.3001,1450.7454,0.3668,275,0.0088,-275,0.0759,1;0;0,0,1450.3458,1.0,867.0,-235.0,1,0
442,1451.1122,-2256.1900,-805.0778,2257.5405,1452.4628,0.3001,1452.7629,0.3668,275,0.05,-275,0.0529,1;0;0,0,1452.3716,1.0,787.0,-282.0,1,0
443,1453.1297,-2258.2075,-805.0778,2272.3132,1467.2354,0.3001,1467.5355,0.3668,-275,0.0088,275,0.0323,1;0;0,1,1467.1443,0.0,-749.0,-322.0,1,0
444,1467.9023,-2272.9801,-805.0778,2273.8638,1468.7860,0.3001,1469.0861,0.3668,-275,0.05,275,0.0582,1;0;0,1,1468.6948,0.0,-733.0,-282.0,1,0
445,1469.4529,-2274.5307,-805.0778,2275.8146,1470.7368,0.3001,1471.0369,0.3668,-275,0.0088,275,0.0117,1;0;0,1,1470.6459,0.0,-702.0,-335.0,1,0
446,1471.4037,-2276.4815,-805.0778,2278.2322,1473.1544,0.3001,1473.4546,0.3668,275,0.0088,-275,0.0759,1;0;0,0,1473.0550,1.0,862.0,-191.0,1,0
447,1473.8214,-2278.8991,-805.0778,2280.2497,1475.1719,0.3001,1475.4720,0.3668,275,0.0167,-275,0.0177,1;0;0,0,1475.0808,1.0,812.0,-293.0,1,0
448,1475.8389,-2280.9166,-805.0778,2281.5002,1476.4224,0.3001,1476.7225,0.3668,-275,0,275,0.0235,0;0.5;0,1,1476.3312,1.0,788.0,-365.0,1,1
449,1477.0894,-2282.1671,-805.0778,2287.3025,1482.2248,0.3001,1482.5249,0.3668,-275,0.0167,275,0.2088,0;0.5;0,1,1482.1337,1.0,777.0,-324.0,1,1
450,1482.8917,-2287.9695,-805.0778,2288.9699,1483.8921,0.3001,1484.1922,0.3668,-275,0,275,0.0029,1;0;0,1,1483.7926,0.0,-774.0,-370.0,1,0
451,1484.5590,-2289.6368,-805.0778,2290.5038,1485.4261,0.3001,1485.7262,0.3668,275,0.2,-275,0.2671,0;0.5;0,0,1485.3349,0.0,-745.0,-358.0,1,1
452,1486.0930,-2291.1708,-805.0778,2291.7877,1486.7099,0.3001,1487.0100,0.3668,275,0,-275,0.0082,0;0.5;0,0,1486.6189,0.0,-764.0,-330.0,1,1
453,1487.3768,-2292.4546,-805.0778,2293.5217,1488.4439,0.3001,1488.7441,0.3668,-275,0.2,275,0.3921,1;0;0,1,1488.3529,0.0,-742.0,-344.0,1,0
454,1489.1109,-2294.1886,-805.0778,2296.1394,1491.0617,0.3001,1491.3618,0.3668,-275,0.0088,275,0.2009,0;0.5;0,1,1490.9623,1.0,849.0,-230.0,1,1
455,1491.7286,-2296.8064,-805.0778,2298.3570,1493.2792,0.3001,1493.5793,0.3668,-275,0,275,0.0029,0;0.5;0,1,1493.1798,1.0,815.0,-243.0,1,1
456,1493.9462,-2299.0239,-805.0778,2300.4245,1495.3467,0.3001,1495.6468,0.3668,-275,0.2,275,1,0;0.5;0,1,1495.2558,1.0,875.0,-213.0,1,1
457,1496.0137,-2301.0914,-805.0778,2304.9596,1499.8819,0.3001,1500.1820,0.3668,-275,0.05,275,0.0735,0;0.5;0,1,1499.7906,1.0,850.0,-202.0,1,1
458,1500.5488,-2305.6266,-805.0778,2307.3606,1502.2828,0.3001,1502.5830,0.3668,-275,0,275,0.0235,0;0.5;0,1,1502.1833,1.0,897.0,-219.0,1,1
459,1502.9498,-2308.0276,-805.0778,2309.3948,1504.3170,0.3001,1504.6171,0.3668,275,0.0167,-275,0.0196,0;0.5;0,0,1504.2176,0.0,-745.0,-332.0,1,1
460,1504.9839,-2310.0617,-805.0778,2311.3956,1506.3178,0.3001,1506.6179,0.3668,275,0.0167,-275,0.0177,0;0.5;0,0,1506.2268,0.0,-739.0,-271.0,1,1
461,1506.9847,-2312.0625,-805.0778,2312.9629,1507.8851,0.3001,1508.1852,0.3668,275,0.05,-275,0.2421,0;0.5;0,0,1507.7856,0.0,-734.0,-278.0,1,1
462,1508.5520,-2313.6298,-805.0778,2324.7176,1519.6398,0.3001,1519.9400,0.3668,-275,0.05,275,0.0529,0;0.5;0,1,1519.5488,1.0,898.0,-212.0,1,1
463,1520.3068,-2325.3845,-805.0778,2327.3687,1522.2909,0.3001,1522.5910,0.3668,275,0.2,-275,0.2082,0;0.5;0,0,1522.1916,0.0,-790.0,-321.0,1,1
464,1522.9579,-2328.0356,-805.0778,2330.1198,1525.0420,0.3001,1525.3421,0.3668,275,0,-275,0.001,0;0.5;0,0,1524.9511,0.0,-798.0,-298.0,1,1