trial,presentation_startTime,presentation_duration,prefeedback_startTime,prefeedback_duration,feedback_startTime,feedback_duration,fixation_startTime,fixation_duration,presentation_object1_positionX,presentation_object1_contrastValue,presentation_object2_positionX,presentation_object2_contrastValue,feedback_object1_color,trialValue,presentation_responseTime,presentation_response,presentation_touchPositionX,presentation_touchPositionY,respondedInTime,correct
1,63.8176,-1020.7845,-956.9669,1021.5182,64.5513,0.3001,64.8514,0.3668,275,0.2,-275,0.3921,0;0.5;0,0,64.4728,0.0,-1092.0,-656.0,1,1
2,65.2182,-1022.1851,-956.9669,1024.6028,67.6359,0.3001,67.9360,0.3668,-275,0.0167,275,0.0402,0;0.5;0,1,67.5488,1.0,1096.0,-709.0,1,1
3,68.3028,-1025.2697,-956.9669,1025.8033,68.8364,0.3001,69.1365,0.3668,275,0.0167,-275,0.2088,0;0.5;0,0,68.7495,0.0,-1100.0,-654.0,1,1
4,69.5033,-1026.4702,-956.9669,1026.7370,69.7701,0.3001,70.0702,0.3668,-275,0.45,275,0.6421,0;0.5;0,1,69.6915,1.0,1100.0,-706.0,1,1
5,70.4370,-1027.4039,-956.9669,1027.6373,70.6704,0.3001,70.9706,0.3668,-275,0.0088,275,0.0098,0;0.5;0,1,70.5835,1.0,1099.0,-699.0,1,1
6,71.3374,-1028.3043,-956.9669,1028.8378,71.8709,0.3001,72.1710,0.3668,275,0,-275,0.1921,0;0.5;0,0,71.7925,0.0,-1086.0,-662.0,1,1
7,72.5379,-1029.5048,-956.9669,1032.9228,75.9559,0.3001,76.2560,0.3668,-275,0,275,0.001,0;0.5;0,1,75.8775,1.0,1096.0,-706.0,1,1
8,76.6229,-1033.5898,-956.9669,1034.4068,77.4399,0.3001,77.7400,0.3668,-275,0.0167,275,0.0249,0;0.5;0,1,77.3613,1.0,1100.0,-704.0,1,1
9,78.1068,-1035.0737,-956.9669,1038.4918,81.5248,0.3001,81.8250,0.3668,275,0.0167,-275,0.2088,1;0;0,0,81.4464,1.0,1100.0,-703.0,1,0
10,82.1918,-1039.1587,-956.9669,1039.6922,82.7253,0.3001,83.0255,0.3668,-275,0.45,275,0.4735,0;0.5;0,1,82.6468,1.0,1100.0,-705.0,1,1
11,83.3923,-1040.3592,-956.9669,1041.1262,84.1593,0.3001,84.4594,0.3668,-275,0,275,0.0671,0;0.5;0,1,84.0807,1.0,1094.0,-705.0,1,1
12,84.8262,-1041.7931,-956.9669,1042.4600,85.4931,0.3001,85.7933,0.3668,275,0.2,-275,0.3921,0;0.5;0,0,85.4061,0.0,-1088.0,-663.0,1,1
13,86.1601,-1043.1270,-956.9669,1043.8106,86.8437,0.3001,87.1438,0.3668,275,0.2,-275,0.3921,0;0.5;0,0,86.7568,0.0,-1091.0,-658.0,1,1
14,87.5106,-1044.4775,-956.9669,1045.0444,88.0775,0.3001,88.3776,0.3668,275,0,-275,0.0671,0;0.5;0,0,87.9992,0.0,-1092.0,-661.0,1,1
15,88.7445,-1045.7114,-956.9669,1046.2616,89.2947,0.3001,89.5948,0.3668,-275,0.05,275,0.0582,1;0;0,1,89.2162,0.0,-1096.0,-655.0,1,0
16,89.9616,-1046.9285,-956.9669,1047.6955,90.7286,0.3001,91.0287,0.3668,-275,0,275,0.0235,0;0.5;0,1,90.6501,1.0,1105.0,-698.0,1,1
17,91.3955,-1048.3624,-956.9669,1048.8960,91.9291,0.3001,92.2292,0.3668,275,0.2,-275,0.2082,0;0.5;0,0,91.8506,0.0,-1092.0,-654.0,1,1
18,92.5960,-1049.5629,-956.9669,1050.0465,93.0795,0.3001,93.3797,0.3668,-275,0.2,275,0.2235,1;0;0,1,92.9926,0.0,-1101.0,-654.0,1,0
19,93.7465,-1050.7134,-956.9669,1051.5471,94.5802,0.3001,94.8803,0.3668,275,0.0167,-275,0.0196,0;0.5;0,0,94.4932,0.0,-1099.0,-651.0,1,1
20,95.2471,-1052.2140,-956.9669,1052.7809,95.8140,0.3001,96.1141,0.3668,-275,0.2,275,0.2082,1;0;0,1,95.7272,0.0,-1094.0,-656.0,1,0
21,96.4809,-1053.4478,-956.9669,1054.3982,97.4313,0.3001,97.7314,0.3668,-275,0.05,275,0.2421,1;0;0,1,97.3445,0.0,-1095.0,-655.0,1,0
22,98.0983,-1055.0652,-956.9669,1057.2160,100.2491,0.3001,100.5493,0.3668,275,0,-275,0.0029,1;0;0,0,100.1705,1.0,1100.0,-702.0,1,0
23,100.9161,-1057.8830,-956.9669,1058.4665,101.4996,0.3001,101.7998,0.3668,-275,0.2,275,0.3921,0;0.5;0,1,101.4210,1.0,1096.0,-704.0,1,1
24,102.1666,-1059.1335,-956.9669,1059.5503,102.5834,0.3001,102.8835,0.3668,-275,0,275,0.0671,0;0.5;0,1,102.4966,1.0,1100.0,-701.0,1,1
25,103.2503,-1060.2173,-956.9669,1060.7175,103.7506,0.3001,104.0507,0.3668,275,0.05,-275,0.0735,1;0;0,0,103.6720,1.0,1097.0,-701.0,1,0
26,104.4175,-1061.3844,-956.9669,1062.0180,105.0511,0.3001,105.3512,0.3668,275,0.45,-275,0.4582,0;0.5;0,0,104.9725,0.0,-1096.0,-653.0,1,1
27,105.7180,-1062.6849,-956.9669,1063.1518,106.1849,0.3001,106.4850,0.3668,275,0.2,-275,0.3921,0;0.5;0,0,106.1063,0.0,-1097.0,-652.0,1,1
28,106.8518,-1063.8187,-956.9669,1067.4535,110.4866,0.3001,110.7867,0.3668,-275,0,275,0.0029,0;0.5;0,1,110.3997,1.0,1094.0,-702.0,1,1
29,111.1536,-1068.1205,-956.9669,1068.6707,111.7038,0.3001,112.0039,0.3668,275,0.2,-275,0.2235,0;0.5;0,0,111.6168,0.0,-1091.0,-675.0,1,1
30,112.3707,-1069.3376,-956.9669,1069.9045,112.9376,0.3001,113.2377,0.3668,-275,0.05,275,0.0735,1;0;0,1,112.8508,0.0,-1087.0,-671.0,1,0
31,113.6046,-1070.5715,-956.9669,1072.5889,115.6220,0.3001,115.9222,0.3668,-275,0.0088,275,0.017,0;0.5;0,1,115.5435,1.0,1096.0,-705.0,1,1
32,116.2890,-1073.2559,-956.9669,1074.0229,117.0560,0.3001,117.3561,0.3668,-275,0.2,275,0.2671,1;0;0,1,116.9690,0.0,-1087.0,-674.0,1,0
33,117.7229,-1074.6898,-956.9669,1076.3738,119.4069,0.3001,119.7070,0.3668,275,0.0088,-275,0.0117,1;0;0,0,119.3285,1.0,1098.0,-701.0,1,0
34,120.0739,-1077.0408,-956.9669,1077.4576,120.4907,0.3001,120.7908,0.3668,-275,0.0088,275,0.2009,0;0.5;0,1,120.4121,1.0,1098.0,-703.0,1,1
35,121.1576,-1078.1245,-956.9669,1078.5414,121.5745,0.3001,121.8746,0.3668,-275,0.0088,275,0.0323,0;0.5;0,1,121.4958,1.0,1097.0,-702.0,1,1
36,122.2414,-1079.2083,-956.9669,1081.0424,124.0755,0.3001,124.3756,0.3668,275,0,-275,0.0082,1;0;0,0,123.9888,1.0,1098.0,-698.0,1,0
37,124.7424,-1081.7093,-956.9669,1083.5601,126.5932,0.3001,126.8933,0.3668,275,0.0088,-275,0.0117,1;0;0,0,126.5062,1.0,1095.0,-698.0,1,0
38,127.2601,-1084.2270,-956.9669,1084.5772,127.6103,0.3001,127.9104,0.3668,-275,0.05,275,0.2421,0;0.5;0,1,127.5316,1.0,1090.0,-701.0,1,1
39,128.2772,-1085.2441,-956.9669,1085.7276,128.7607,0.3001,129.0608,0.3668,275,0.0167,-275,0.2088,0;0.5;0,0,128.6739,0.0,-1084.0,-674.0,1,1
40,129.4277,-1086.3946,-956.9669,1086.7447,129.7778,0.3001,130.0779,0.3668,-275,0.0088,275,0.2009,0;0.5;0,1,129.6908,1.0,1093.0,-700.0,1,1
41,130.4447,-1087.4116,-956.9669,1088.2620,131.2951,0.3001,131.5952,0.3668,-275,0.0167,275,0.0177,1;0;0,1,131.2165,0.0,-1085.0,-665.0,1,0
42,131.9620,-1088.9289,-956.9669,1089.2791,132.3122,0.3001,132.6123,0.3668,-275,0.0167,275,0.2088,0;0.5;0,1,132.2338,1.0,1092.0,-702.0,1,1
43,132.9791,-1089.9460,-956.9669,1090.3962,133.4293,0.3001,133.7294,0.3668,-275,0.2,275,0.2235,1;0;0,1,133.3508,0.0,-1081.0,-660.0,1,0
44,134.0962,-1091.0631,-956.9669,1091.6133,134.6464,0.3001,134.9466,0.3668,275,0.0167,-275,0.0838,0;0.5;0,0,134.5679,0.0,-1082.0,-662.0,1,1
45,135.3134,-1092.2803,-956.9669,1092.6971,135.7302,0.3001,136.0303,0.3668,-275,0.45,275,1,0;0.5;0,1,135.6516,1.0,1090.0,-704.0,1,1
46,136.3972,-1093.3641,-956.9669,1093.7642,136.7973,0.3001,137.0974,0.3668,-275,0.0088,275,0.2009,0;0.5;0,1,136.7187,1.0,1088.0,-706.0,1,1
47,137.4643,-1094.4312,-956.9669,1095.0814,138.1145,0.3001,138.4146,0.3668,-275,0.2,275,0.2671,1;0;0,1,138.0277,0.0,-1083.0,-652.0,1,0
48,138.7815,-1095.7484,-956.9669,1097.2656,140.2987,0.3001,140.5989,0.3668,275,0.45,-275,0.5171,0;0.5;0,0,140.2118,0.0,-1085.0,-645.0,1,1
49,140.9657,-1097.9326,-956.9669,1100.2835,143.3166,0.3001,143.6168,0.3668,275,0.0167,-275,0.0249,1;0;0,0,143.2297,1.0,1095.0,-699.0,1,0
50,143.9836,-1100.9505,-956.9669,1101.3173,144.3504,0.3001,144.6505,0.3668,-275,0.2,275,0.75,0;0.5;0,1,144.2636,1.0,1099.0,-699.0,1,1
51,145.0173,-1101.9842,-956.9669,1103.5682,146.6013,0.3001,146.9014,0.3668,-275,0,275,0.001,0;0.5;0,1,146.5226,1.0,1092.0,-703.0,1,1
52,147.2682,-1104.2351,-956.9669,1106.4027,149.4358,0.3001,149.7359,0.3668,275,0,-275,0.001,1;0;0,0,149.3490,1.0,1091.0,-700.0,1,0
53,150.1027,-1107.0696,-956.9669,1108.0033,151.0364,0.3001,151.3366,0.3668,-275,0.05,275,0.0529,1;0;0,1,150.9495,0.0,-1086.0,-640.0,1,0
54,151.7034,-1108.6703,-956.9669,1109.1205,152.1536,0.3001,152.4537,0.3668,-275,0.05,275,0.6,0;0.5;0,1,152.0665,1.0,1092.0,-702.0,1,1
55,152.8205,-1109.7874,-956.9669,1110.2376,153.2707,0.3001,153.5708,0.3668,-275,0.45,275,0.4582,0;0.5;0,1,153.1922,1.0,1090.0,-702.0,1,1
56,153.9376,-1110.9045,-956.9669,1111.8216,154.8547,0.3001,155.1548,0.3668,-275,0.45,275,0.4735,1;0;0,1,154.7678,0.0,-1096.0,-628.0,1,0
57,155.5216,-1112.4885,-956.9669,1113.1221,156.1552,0.3001,156.4553,0.3668,275,0.45,-275,0.4582,0;0.5;0,0,156.0768,0.0,-1089.0,-632.0,1,1
58,156.8221,-1113.7890,-956.9669,1114.3392,157.3723,0.3001,157.6725,0.3668,-275,0.45,275,1,0;0.5;0,1,157.2938,1.0,1092.0,-699.0,1,1
59,158.0393,-1115.0062,-956.9669,1116.1900,159.2231,0.3001,159.5232,0.3668,275,0.45,-275,0.5171,1;0;0,0,159.1361,1.0,1082.0,-702.0,1,0
60,159.8900,-1116.8569,-956.9669,1117.3738,160.4069,0.3001,160.7070,0.3668,275,0.2,-275,0.75,0;0.5;0,0,160.3199,0.0,-1087.0,-632.0,1,1
61,161.0738,-1118.0408,-956.9669,1118.5410,161.5740,0.3001,161.8742,0.3668,275,0.2,-275,0.3921,0;0.5;0,0,161.4955,0.0,-1084.0,-629.0,1,1
62,162.2410,-1119.2079,-956.9669,1119.8748,162.9079,0.3001,163.2080,0.3668,-275,0.05,275,0.1171,1;0;0,1,162.8211,0.0,-1083.0,-632.0,1,0
63,163.5749,-1120.5418,-956.9669,1123.6764,166.7095,0.3001,167.0096,0.3668,275,0.0167,-275,0.0177,1;0;0,0,166.6226,1.0,1089.0,-699.0,1,0
64,167.3764,-1124.3433,-956.9669,1125.7606,168.7936,0.3001,169.0938,0.3668,-275,0.0167,275,0.0402,1;0;0,1,168.7153,0.0,-1083.0,-630.0,1,0
65,169.4606,-1126.4275,-956.9669,1126.8777,169.9108,0.3001,170.2109,0.3668,275,0,-275,0.0029,1;0;0,0,169.8238,1.0,1086.0,-702.0,1,0
66,170.5777,-1127.5446,-956.9669,1128.3449,171.3780,0.3001,171.6782,0.3668,275,0.05,-275,0.0529,0;0.5;0,0,171.2994,0.0,-1084.0,-629.0,1,1
67,172.0450,-1129.0119,-956.9669,1129.7955,172.8286,0.3001,173.1287,0.3668,275,0.0088,-275,0.017,0;0.5;0,0,172.7502,0.0,-1085.0,-629.0,1,1
68,173.4956,-1130.4625,-956.9669,1130.8793,173.9124,0.3001,174.2125,0.3668,275,0.2,-275,0.2671,0;0.5;0,0,173.8340,0.0,-1086.0,-628.0,1,1
69,174.5793,-1131.5462,-956.9669,1132.1298,175.1629,0.3001,175.4630,0.3668,-275,0.2,275,0.3921,0;0.5;0,1,175.0760,1.0,1088.0,-698.0,1,1
70,175.8298,-1132.7967,-956.9669,1133.7638,176.7969,0.3001,177.0970,0.3668,-275,0.05,275,0.0529,0;0.5;0,1,176.7102,1.0,1083.0,-704.0,1,1
71,177.4638,-1134.4307,-956.9669,1135.3645,178.3975,0.3001,178.6977,0.3668,275,0.05,-275,0.0582,1;0;0,0,178.3107,1.0,1077.0,-699.0,1,0
72,179.0645,-1136.0314,-956.9669,1136.8984,179.9315,0.3001,180.2316,0.3668,-275,0.05,275,0.0582,1;0;0,1,179.8528,0.0,-1085.0,-623.0,1,0
73,180.5984,-1137.5653,-956.9669,1138.5491,181.5822,0.3001,181.8823,0.3668,275,0.45,-275,0.4735,0;0.5;0,0,181.5038,0.0,-1084.0,-625.0,1,1
74,182.2491,-1139.2160,-956.9669,1140.0997,183.1328,0.3001,183.4329,0.3668,-275,0,275,0.1921,0;0.5;0,1,183.0458,1.0,1082.0,-699.0,1,1
75,183.7997,-1140.7666,-956.9669,1141.3836,184.4167,0.3001,184.7168,0.3668,-275,0.05,275,0.0582,1;0;0,1,184.3382,0.0,-1085.0,-623.0,1,0
76,185.0836,-1142.0505,-956.9669,1143.4844,186.5175,0.3001,186.8176,0.3668,-275,0,275,0.001,0;0.5;0,1,186.4307,1.0,1077.0,-699.0,1,1
77,187.1845,-1144.1514,-956.9669,1144.6182,187.6513,0.3001,187.9514,0.3668,-275,0.45,275,1,0;0.5;0,1,187.5646,1.0,1077.0,-701.0,1,1
78,188.3182,-1145.2851,-956.9669,1148.6365,191.6696,0.3001,191.9697,0.3668,275,0,-275,0.001,1;0;0,0,191.5826,1.0,1076.0,-699.0,1,0
79,192.3365,-1149.3034,-956.9669,1149.7870,192.8201,0.3001,193.1202,0.3668,275,0.2,-275,1,0;0.5;0,0,192.7416,0.0,-1088.0,-621.0,1,1
80,193.4870,-1150.4539,-956.9669,1151.4210,194.4541,0.3001,194.7542,0.3668,-275,0.05,275,0.0529,1;0;0,1,194.3672,0.0,-1085.0,-627.0,1,0
81,195.1210,-1152.0879,-956.9669,1152.5881,195.6212,0.3001,195.9213,0.3668,275,0.45,-275,1,0;0.5;0,0,195.5345,0.0,-1079.0,-640.0,1,1
82,196.2881,-1153.2551,-956.9669,1153.8386,196.8717,0.3001,197.1718,0.3668,275,0.05,-275,0.1171,0;0.5;0,0,196.7849,0.0,-1076.0,-637.0,1,1
83,197.5387,-1154.5056,-956.9669,1156.2729,199.3060,0.3001,199.6062,0.3668,-275,0,275,0.0082,0;0.5;0,1,199.2277,1.0,1072.0,-700.0,1,1
84,199.9730,-1156.9399,-956.9669,1157.9903,201.0234,0.3001,201.3235,0.3668,275,0.0088,-275,0.017,0;0.5;0,0,200.9365,0.0,-1081.0,-635.0,1,1
85,201.6903,-1158.6572,-956.9669,1159.1741,202.2072,0.3001,202.5073,0.3668,275,0.0088,-275,0.0323,0;0.5;0,0,202.1287,0.0,-1078.0,-632.0,1,1
86,202.8742,-1159.8411,-956.9669,1160.2412,203.2743,0.3001,203.5744,0.3668,275,0.0167,-275,0.2088,0;0.5;0,0,203.1873,0.0,-1077.0,-633.0,1,1
87,203.9413,-1160.9082,-956.9669,1161.2916,204.3247,0.3001,204.6249,0.3668,275,0.0088,-275,0.0759,0;0.5;0,0,204.2380,0.0,-1081.0,-632.0,1,1
88,204.9917,-1161.9586,-956.9669,1162.4421,205.4752,0.3001,205.7753,0.3668,275,0.0088,-275,0.0323,0;0.5;0,0,205.3884,0.0,-1081.0,-630.0,1,1
89,206.1421,-1163.1091,-956.9669,1165.0765,208.1096,0.3001,208.4097,0.3668,275,0,-275,0.0029,1;0;0,0,208.0227,1.0,1077.0,-698.0,1,0
90,208.7766,-1165.7435,-956.9669,1166.4938,209.5269,0.3001,209.8270,0.3668,-275,0.0167,275,0.0177,1;0;0,1,209.4482,0.0,-1076.0,-630.0,1,0
91,210.1938,-1167.1607,-956.9669,1167.7609,210.7940,0.3001,211.0942,0.3668,-275,0.05,275,0.2421,0;0.5;0,1,210.7072,1.0,1076.0,-700.0,1,1
92,211.4610,-1168.4279,-956.9669,1168.8280,211.8611,0.3001,212.1613,0.3668,-275,0,275,0.0671,0;0.5;0,1,211.7826,1.0,1076.0,-699.0,1,1
93,212.5281,-1169.4950,-956.9669,1169.8618,212.8949,0.3001,213.1950,0.3668,-275,0.0088,275,0.017,0;0.5;0,1,212.8080,1.0,1078.0,-699.0,1,1
94,213.5618,-1170.5287,-956.9669,1170.9456,213.9787,0.3001,214.2788,0.3668,-275,0.05,275,0.6,0;0.5;0,1,213.9001,1.0,1073.0,-703.0,1,1
95,214.6456,-1171.6125,-956.9669,1171.9960,215.0291,0.3001,215.3292,0.3668,275,0.05,-275,0.1171,1;0;0,0,214.9422,1.0,1076.0,-700.0,1,0
96,215.6960,-1172.6629,-956.9669,1173.3132,216.3463,0.3001,216.6464,0.3668,275,0.05,-275,0.6,0;0.5;0,0,216.2677,0.0,-1070.0,-631.0,1,1
97,217.0132,-1173.9801,-956.9669,1174.5637,217.5968,0.3001,217.8969,0.3668,275,0.05,-275,0.0735,0;0.5;0,0,217.5101,0.0,-1069.0,-631.0,1,1
98,218.2637,-1175.2306,-956.9669,1175.8142,218.8473,0.3001,219.1474,0.3668,-275,0.45,275,0.5171,0;0.5;0,1,218.7604,1.0,1073.0,-699.0,1,1
99,219.5142,-1176.4811,-956.9669,1176.8146,219.8477,0.3001,220.1478,0.3668,-275,0.0167,275,0.2088,0;0.5;0,1,219.7692,1.0,1070.0,-704.0,1,1
100,220.5146,-1177.4816,-956.9669,1178.1652,221.1983,0.3001,221.4984,0.3668,-275,0,275,0.0235,0;0.5;0,1,221.1113,1.0,1065.0,-702.0,1,1
101,221.8652,-1178.8321,-956.9669,1179.2156,222.2487,0.3001,222.5488,0.3668,-275,0.0088,275,0.2009,0;0.5;0,1,222.1620,1.0,1059.0,-700.0,1,1
102,222.9156,-1179.8825,-956.9669,1180.2660,223.2991,0.3001,223.5992,0.3668,-275,0.0088,275,0.017,0;0.5;0,1,223.2205,1.0,1053.0,-706.0,1,1
103,223.9660,-1180.9330,-956.9669,1181.4498,224.4829,0.3001,224.7830,0.3668,275,0.45,-275,0.6421,0;0.5;0,0,224.3960,0.0,-1071.0,-628.0,1,1
104,225.1499,-1182.1168,-956.9669,1182.6170,225.6501,0.3001,225.9502,0.3668,275,0.45,-275,0.4582,0;0.5;0,0,225.5715,0.0,-1066.0,-630.0,1,1
105,226.3170,-1183.2839,-956.9669,1183.6841,226.7172,0.3001,227.0173,0.3668,-275,0.2,275,1,0;0.5;0,1,226.6388,1.0,1055.0,-703.0,1,1
106,227.3841,-1184.3510,-956.9669,1184.9346,227.9677,0.3001,228.2678,0.3668,-275,0.2,275,0.2082,1;0;0,1,227.8807,0.0,-1071.0,-628.0,1,0
107,228.6346,-1185.6015,-956.9669,1186.4685,229.5016,0.3001,229.8018,0.3668,-275,0.05,275,0.1171,0;0.5;0,1,229.4232,1.0,1058.0,-697.0,1,1
108,230.1686,-1187.1355,-956.9669,1187.4022,230.4353,0.3001,230.7355,0.3668,275,0.0167,-275,0.2088,1;0;0,0,230.3485,1.0,1057.0,-697.0,1,0
109,231.1023,-1188.0692,-956.9669,1188.5194,231.5525,0.3001,231.8526,0.3668,275,0.45,-275,0.4735,1;0;0,0,231.4740,1.0,1057.0,-699.0,1,0
110,232.2194,-1189.1863,-956.9669,1191.7207,234.7538,0.3001,235.0539,0.3668,-275,0.2,275,0.75,0;0.5;0,1,234.6669,1.0,1055.0,-699.0,1,1
111,235.4207,-1192.3876,-956.9669,1192.8378,235.8709,0.3001,236.1710,0.3668,-275,0.2,275,1,0;0.5;0,1,235.7840,1.0,1056.0,-700.0,1,1
112,236.5378,-1193.5047,-956.9669,1193.8549,236.8880,0.3001,237.1881,0.3668,275,0.45,-275,0.4735,1;0;0,0,236.8094,1.0,1056.0,-698.0,1,0
113,237.5549,-1194.5218,-956.9669,1196.0558,239.0889,0.3001,239.3890,0.3668,-275,0.0167,275,0.0838,0;0.5;0,1,239.0019,1.0,1054.0,-699.0,1,1
114,239.7558,-1196.7227,-956.9669,1197.3229,240.3560,0.3001,240.6562,0.3668,-275,0.0167,275,0.0249,0;0.5;0,1,240.2774,1.0,1057.0,-695.0,1,1
115,241.0230,-1197.9899,-956.9669,1198.4234,241.4565,0.3001,241.7566,0.3668,-275,0.2,275,0.2082,1;0;0,1,241.3778,0.0,-1076.0,-622.0,1,0
116,242.1234,-1199.0903,-956.9669,1199.3904,242.4235,0.3001,242.7237,0.3668,275,0.2,-275,0.75,1;0;0,0,242.3366,1.0,1052.0,-699.0,1,0
117,243.0905,-1200.0574,-956.9669,1200.7910,243.8241,0.3001,244.1242,0.3668,275,0.0088,-275,0.0098,1;0;0,0,243.7456,1.0,1052.0,-699.0,1,0
118,244.4910,-1201.4579,-956.9669,1202.5250,245.5581,0.3001,245.8583,0.3668,-275,0.2,275,0.3921,0;0.5;0,1,245.4711,1.0,1052.0,-699.0,1,1
119,246.2251,-1203.1920,-956.9669,1203.6922,246.7253,0.3001,247.0254,0.3668,275,0.45,-275,1,0;0.5;0,0,246.6386,0.0,-1081.0,-617.0,1,1
120,247.3922,-1204.3591,-956.9669,1205.1761,248.2092,0.3001,248.5093,0.3668,275,0.05,-275,0.0529,0;0.5;0,0,248.1223,0.0,-1082.0,-618.0,1,1
121,248.8762,-1205.8431,-956.9669,1206.1765,249.2096,0.3001,249.5097,0.3668,275,0.0167,-275,0.0177,1;0;0,0,249.1226,1.0,1054.0,-697.0,1,0
122,249.8766,-1206.8435,-956.9669,1207.3437,250.3768,0.3001,250.6769,0.3668,275,0.45,-275,1,0;0.5;0,0,250.2900,0.0,-1086.0,-612.0,1,1
123,251.0437,-1208.0106,-956.9669,1208.5442,251.5773,0.3001,251.8774,0.3668,-275,0.05,275,0.2421,0;0.5;0,1,251.4986,1.0,1056.0,-699.0,1,1
124,252.2442,-1209.2111,-956.9669,1209.6946,252.7277,0.3001,253.0278,0.3668,-275,0.2,275,0.75,0;0.5;0,1,252.6490,1.0,1057.0,-697.0,1,1
125,253.3947,-1210.3616,-956.9669,1211.0285,254.0616,0.3001,254.3617,0.3668,275,0,-275,0.0671,0;0.5;0,0,253.9830,0.0,-1084.0,-612.0,1,1
126,254.7285,-1211.6954,-956.9669,1211.9789,255.0120,0.3001,255.3121,0.3668,-275,0.2,275,0.2235,0;0.5;0,1,254.9335,1.0,1053.0,-700.0,1,1
127,255.6789,-1212.6458,-956.9669,1213.2294,256.2625,0.3001,256.5626,0.3668,275,0.2,-275,0.2082,0;0.5;0,0,256.1839,0.0,-1085.0,-613.0,1,1
128,256.9294,-1213.8963,-956.9669,1214.2965,257.3296,0.3001,257.6297,0.3668,275,0.05,-275,0.0735,0;0.5;0,0,257.2427,0.0,-1086.0,-613.0,1,1
129,257.9965,-1214.9634,-956.9669,1215.6804,258.7135,0.3001,259.0136,0.3668,275,0.0088,-275,0.0323,1;0;0,0,258.6349,1.0,1049.0,-702.0,1,0
130,259.3804,-1216.3473,-956.9669,1218.3648,261.3979,0.3001,261.6980,0.3668,-275,0,275,0.0671,0;0.5;0,1,261.3194,1.0,1049.0,-701.0,1,1
131,262.0648,-1219.0317,-956.9669,1219.3819,262.4150,0.3001,262.7151,0.3668,-275,0.05,275,0.1171,1;0;0,1,262.3363,0.0,-1082.0,-615.0,1,0
132,263.0819,-1220.0488,-956.9669,1220.2989,263.3320,0.3001,263.6321,0.3668,-275,0.45,275,1,0;0.5;0,1,263.2450,1.0,1050.0,-704.0,1,1
133,263.9990,-1220.9659,-956.9669,1221.8329,264.8660,0.3001,265.1661,0.3668,275,0.2,-275,0.2671,1;0;0,0,264.7873,1.0,1052.0,-698.0,1,0
134,265.5329,-1222.4998,-956.9669,1223.6003,266.6334,0.3001,266.9335,0.3668,-275,0.0167,275,0.2088,1;0;0,1,266.5548,0.0,-1081.0,-616.0,1,0
135,267.3003,-1224.2672,-956.9669,1225.2343,268.2674,0.3001,268.5675,0.3668,-275,0.45,275,0.5171,0;0.5;0,1,268.1805,1.0,1051.0,-700.0,1,1
136,268.9343,-1225.9012,-956.9669,1226.4347,269.4678,0.3001,269.7680,0.3668,275,0.2,-275,1,0;0.5;0,0,269.3810,0.0,-1083.0,-618.0,1,1
137,270.1348,-1227.1017,-956.9669,1227.6019,270.6350,0.3001,270.9351,0.3668,275,0.05,-275,0.1171,1;0;0,0,270.5563,1.0,1052.0,-702.0,1,0
138,271.3019,-1228.2688,-956.9669,1228.9858,272.0189,0.3001,272.3190,0.3668,-275,0.45,275,0.4582,1;0;0,1,271.9320,0.0,-1085.0,-617.0,1,0
139,272.6858,-1229.6527,-956.9669,1230.6531,273.6862,0.3001,273.9863,0.3668,275,0,-275,0.0235,0;0.5;0,0,273.6077,0.0,-1078.0,-621.0,1,1
140,274.3532,-1231.3201,-956.9669,1232.0870,275.1201,0.3001,275.4203,0.3668,-275,0.0167,275,0.0838,0;0.5;0,1,275.0417,1.0,1056.0,-698.0,1,1
141,275.7871,-1232.7540,-956.9669,1233.5043,276.5374,0.3001,276.8375,0.3668,275,0.0167,-275,0.0196,1;0;0,0,276.4504,1.0,1053.0,-697.0,1,0
142,277.2043,-1234.1712,-956.9669,1234.6548,277.6878,0.3001,277.9880,0.3668,-275,0.2,275,0.3921,0;0.5;0,1,277.6010,1.0,1055.0,-698.0,1,1
143,278.3548,-1235.3217,-956.9669,1235.7052,278.7383,0.3001,279.0384,0.3668,275,0.2,-275,0.3921,1;0;0,0,278.6513,1.0,1056.0,-696.0,1,0
144,279.4052,-1236.3721,-956.9669,1236.9890,280.0221,0.3001,280.3222,0.3668,275,0.05,-275,0.1171,1;0;0,0,279.9352,1.0,1057.0,-695.0,1,0
145,280.6891,-1237.6560,-956.9669,1240.8573,283.8904,0.3001,284.1905,0.3668,-275,0.0167,275,0.0177,0;0.5;0,1,283.8121,1.0,1057.0,-694.0,1,1
146,284.5573,-1241.5242,-956.9669,1242.0244,285.0575,0.3001,285.3576,0.3668,275,0.0167,-275,0.0838,0;0.5;0,0,284.9708,0.0,-1084.0,-622.0,1,1
147,285.7244,-1242.6913,-956.9669,1243.3916,286.4247,0.3001,286.7248,0.3668,275,0.45,-275,1,0;0.5;0,0,286.3460,0.0,-1086.0,-618.0,1,1
148,287.0917,-1244.0586,-956.9669,1244.6088,287.6419,0.3001,287.9420,0.3668,-275,0.0088,275,0.2009,0;0.5;0,1,287.5633,1.0,1061.0,-690.0,1,1
149,288.3088,-1245.2757,-956.9669,1246.0427,289.0758,0.3001,289.3759,0.3668,-275,0.45,275,0.4582,1;0;0,1,288.9971,0.0,-1091.0,-610.0,1,0
150,289.7427,-1246.7096,-956.9669,1247.2599,290.2930,0.3001,290.5931,0.3668,275,0.0088,-275,0.0323,1;0;0,0,290.2061,1.0,1062.0,-690.0,1,0
151,290.9599,-1247.9268,-956.9669,1248.6604,291.6935,0.3001,291.9936,0.3668,275,0.0088,-275,0.0323,0;0.5;0,0,291.6149,0.0,-1097.0,-613.0,1,1
152,292.3605,-1249.3274,-956.9669,1251.5616,294.5947,0.3001,294.8948,0.3668,275,0.0088,-275,0.017,1;0;0,0,294.5079,1.0,1062.0,-689.0,1,0
153,295.2616,-1252.2285,-956.9669,1252.7287,295.7618,0.3001,296.0620,0.3668,275,0.0167,-275,0.0402,0;0.5;0,0,295.6750,0.0,-1094.0,-613.0,1,1
154,296.4288,-1253.3957,-956.9669,1253.8459,296.8790,0.3001,297.1791,0.3668,-275,0.2,275,0.75,0;0.5;0,1,296.8003,1.0,1066.0,-686.0,1,1
155,297.5459,-1254.5128,-956.9669,1254.9296,297.9627,0.3001,298.2629,0.3668,275,0.0088,-275,0.0117,1;0;0,0,297.8757,1.0,1069.0,-685.0,1,0
156,298.6297,-1255.5966,-956.9669,1256.5136,299.5467,0.3001,299.8468,0.3668,275,0.05,-275,0.0582,1;0;0,0,299.4598,1.0,1069.0,-685.0,1,0
157,300.2136,-1257.1806,-956.9669,1260.1317,303.1648,0.3001,303.4650,0.3668,-275,0.0088,275,0.017,0;0.5;0,1,303.0781,1.0,1070.0,-684.0,1,1
158,303.8318,-1260.7987,-956.9669,1261.1822,304.2153,0.3001,304.5154,0.3668,-275,0.2,275,0.75,0;0.5;0,1,304.1366,1.0,1071.0,-685.0,1,1
159,304.8822,-1261.8491,-956.9669,1265.1838,308.2169,0.3001,308.5170,0.3668,275,0.05,-275,0.0529,1;0;0,0,308.1299,1.0,1070.0,-684.0,1,0
160,308.8838,-1265.8507,-956.9669,1266.2009,309.2340,0.3001,309.5341,0.3668,-275,0.05,275,0.6,0;0.5;0,1,309.1470,1.0,1073.0,-685.0,1,1
161,309.9009,-1266.8678,-956.9669,1268.5018,311.5349,0.3001,311.8350,0.3668,-275,0,275,0.0082,0;0.5;0,1,311.4563,1.0,1071.0,-684.0,1,1
162,312.2018,-1269.1687,-956.9669,1269.7356,312.7687,0.3001,313.0689,0.3668,275,0.0088,-275,0.0323,0;0.5;0,0,312.6902,0.0,-1089.0,-614.0,1,1
163,313.4357,-1270.4026,-956.9669,1270.9695,314.0026,0.3001,314.3027,0.3668,275,0.0088,-275,0.2009,0;0.5;0,0,313.9240,0.0,-1085.0,-618.0,1,1
164,314.6695,-1271.6364,-956.9669,1273.5539,316.5870,0.3001,316.8871,0.3668,-275,0.0167,275,0.0196,0;0.5;0,1,316.5083,1.0,1072.0,-681.0,1,1
165,317.2539,-1274.2208,-956.9669,1274.9544,317.9875,0.3001,318.2876,0.3668,-275,0.0088,275,0.0098,0;0.5;0,1,317.9005,1.0,1072.0,-682.0,1,1
166,318.6545,-1275.6214,-956.9669,1276.0382,319.0713,0.3001,319.3714,0.3668,-275,0,275,0.0235,0;0.5;0,1,318.9928,1.0,1072.0,-684.0,1,1
167,319.7382,-1276.7051,-956.9669,1277.2554,320.2885,0.3001,320.5886,0.3668,-275,0.45,275,0.5171,1;0;0,1,320.2016,0.0,-1087.0,-615.0,1,0
168,320.9554,-1277.9223,-956.9669,1278.0890,321.1221,0.3001,321.4222,0.3668,275,0.05,-275,0.2421,1;0;0,0,321.0434,1.0,1073.0,-681.0,1,0
169,321.7891,-1278.7560,-956.9669,1279.1895,322.2226,0.3001,322.5227,0.3668,275,0.0088,-275,0.0759,1;0;0,0,322.1358,1.0,1074.0,-681.0,1,0
170,322.8895,-1279.8564,-956.9669,1280.6234,323.6565,0.3001,323.9566,0.3668,275,0.0088,-275,0.0098,1;0;0,0,323.5778,1.0,1074.0,-680.0,1,0
171,324.3234,-1281.2903,-956.9669,1281.9906,325.0237,0.3001,325.3238,0.3668,275,0.0167,-275,0.0838,0;0.5;0,0,324.9367,0.0,-1086.0,-612.0,1,1
172,325.6906,-1282.6575,-956.9669,1283.1411,326.1742,0.3001,326.4743,0.3668,-275,0.45,275,1,0;0.5;0,1,326.0957,1.0,1071.0,-684.0,1,1
173,326.8411,-1283.8080,-956.9669,1284.5583,327.5914,0.3001,327.8915,0.3668,275,0.2,-275,0.2671,0;0.5;0,0,327.5046,0.0,-1086.0,-615.0,1,1
174,328.2584,-1285.2253,-956.9669,1285.4420,328.4751,0.3001,328.7752,0.3668,275,0.05,-275,0.6,1;0;0,0,328.3965,1.0,1071.0,-684.0,1,0
175,329.1420,-1286.1089,-956.9669,1287.1427,330.1758,0.3001,330.4759,0.3668,-275,0.0088,275,0.2009,0;0.5;0,1,330.0889,1.0,1070.0,-685.0,1,1
176,330.8427,-1287.8096,-956.9669,1288.2932,331.3263,0.3001,331.6264,0.3668,-275,0.05,275,0.0582,0;0.5;0,1,331.2478,1.0,1071.0,-685.0,1,1
177,331.9932,-1288.9601,-956.9669,1289.8438,332.8769,0.3001,333.1770,0.3668,-275,0,275,0.1921,0;0.5;0,1,332.7898,1.0,1071.0,-684.0,1,1
178,333.5438,-1290.5107,-956.9669,1291.9780,335.0111,0.3001,335.3112,0.3668,-275,0.0167,275,0.2088,0;0.5;0,1,334.9242,1.0,1075.0,-684.0,1,1
179,335.6780,-1292.6449,-956.9669,1293.5453,336.5784,0.3001,336.8785,0.3668,-275,0.0088,275,0.0098,0;0.5;0,1,336.4914,1.0,1075.0,-683.0,1,1
180,337.2453,-1294.2122,-956.9669,1294.7124,337.7455,0.3001,338.0457,0.3668,-275,0.0088,275,0.017,0;0.5;0,1,337.6669,1.0,1073.0,-685.0,1,1
181,338.4125,-1295.3794,-956.9669,1295.6295,338.6626,0.3001,338.9627,0.3668,275,0.0167,-275,0.0177,1;0;0,0,338.5757,1.0,1071.0,-685.0,1,0
182,339.3295,-1296.2964,-956.9669,1297.3302,340.3633,0.3001,340.6634,0.3668,275,0.0088,-275,0.0759,0;0.5;0,0,340.2847,0.0,-1084.0,-616.0,1,1
183,341.0302,-1297.9971,-956.9669,1298.5807,341.6138,0.3001,341.9139,0.3668,275,0.2,-275,0.75,0;0.5;0,0,341.5268,0.0,-1083.0,-614.0,1,1
184,342.2807,-1299.2476,-956.9669,1300.0813,343.1144,0.3001,343.4145,0.3668,275,0.2,-275,0.2082,0;0.5;0,0,343.0358,0.0,-1087.0,-612.0,1,1
185,343.7813,-1300.7482,-956.9669,1301.4485,344.4816,0.3001,344.7817,0.3668,275,0.05,-275,0.0735,0;0.5;0,0,344.4030,0.0,-1086.0,-613.0,1,1
186,345.1485,-1302.1154,-956.9669,1304.0662,347.0993,0.3001,347.3994,0.3668,-275,0.0167,275,0.0249,0;0.5;0,1,347.0123,1.0,1074.0,-689.0,1,1
187,347.7663,-1304.7332,-956.9669,1305.5168,348.5499,0.3001,348.8500,0.3668,-275,0.0088,275,0.0323,0;0.5;0,1,348.4713,1.0,1072.0,-690.0,1,1
188,349.2168,-1306.1837,-956.9669,1306.7340,349.7671,0.3001,350.0672,0.3668,275,0.45,-275,1,0;0.5;0,0,349.6885,0.0,-1083.0,-618.0,1,1
189,350.4340,-1307.4009,-956.9669,1309.0516,352.0847,0.3001,352.3848,0.3668,275,0.2,-275,0.75,1;0;0,0,352.0060,1.0,1075.0,-686.0,1,0
190,352.7516,-1309.7185,-956.9669,1310.4855,353.5186,0.3001,353.8187,0.3668,275,0.2,-275,0.2235,0;0.5;0,0,353.4400,0.0,-1085.0,-611.0,1,1
191,354.1855,-1311.1524,-956.9669,1320.1227,363.1558,0.3001,363.4559,0.3668,-275,0,275,0.001,0;0.5;0,1,363.0688,1.0,1077.0,-686.0,1,1
192,363.8228,-1320.7897,-956.9669,1321.2732,364.3063,0.3001,364.6064,0.3668,275,0.2,-275,0.2235,0;0.5;0,0,364.2280,0.0,-1100.0,-602.0,1,1
193,364.9732,-1321.9401,-956.9669,1322.9906,366.0237,0.3001,366.3238,0.3668,-275,0.05,275,0.0735,0;0.5;0,1,365.9367,1.0,1076.0,-688.0,1,1
194,366.6906,-1323.6575,-956.9669,1324.3078,367.3409,0.3001,367.6410,0.3668,-275,0,275,0.1921,0;0.5;0,1,367.2623,1.0,1076.0,-688.0,1,1
195,368.0078,-1324.9747,-956.9669,1325.3415,368.3746,0.3001,368.6747,0.3668,275,0.05,-275,0.0582,1;0;0,0,368.2960,1.0,1074.0,-690.0,1,0
196,369.0415,-1326.0084,-956.9669,1326.5753,369.6084,0.3001,369.9086,0.3668,275,0,-275,0.0235,1;0;0,0,369.5215,1.0,1076.0,-689.0,1,0
197,370.2754,-1327.2423,-956.9669,1327.8425,370.8756,0.3001,371.1757,0.3668,-275,0.0088,275,0.0759,0;0.5;0,1,370.7970,1.0,1075.0,-689.0,1,1
198,371.5426,-1328.5095,-956.9669,1329.0930,372.1261,0.3001,372.4262,0.3668,-275,0.45,275,1,0;0.5;0,1,372.0475,1.0,1075.0,-688.0,1,1
199,372.7931,-1329.7600,-956.9669,1333.3114,376.3445,0.3001,376.6446,0.3668,-275,0.0167,275,0.0249,0;0.5;0,1,376.2658,1.0,1073.0,-690.0,1,1
200,377.0114,-1333.9783,-956.9669,1334.4452,377.4783,0.3001,377.7784,0.3668,-275,0.0167,275,0.0838,0;0.5;0,1,377.3996,1.0,1074.0,-690.0,1,1
201,378.1452,-1335.1121,-956.9669,1335.6290,378.6621,0.3001,378.9622,0.3668,275,0.2,-275,1,0;0.5;0,0,378.5753,0.0,-1094.0,-604.0,1,1
202,379.3290,-1336.2959,-956.9669,1336.8795,379.9126,0.3001,380.2127,0.3668,275,0.45,-275,0.5171,0;0.5;0,0,379.8257,0.0,-1095.0,-606.0,1,1
203,380.5796,-1337.5465,-956.9669,1338.3468,381.3799,0.3001,381.6800,0.3668,-275,0.05,275,0.0529,1;0;0,1,381.2929,0.0,-1096.0,-602.0,1,0
204,382.0468,-1339.0137,-956.9669,1339.9141,382.9472,0.3001,383.2473,0.3668,-275,0,275,0.0082,0;0.5;0,1,382.8603,1.0,1076.0,-687.0,1,1
205,383.6141,-1340.5810,-956.9669,1341.0979,384.1310,0.3001,384.4311,0.3668,275,0.05,-275,0.2421,0;0.5;0,0,384.0524,0.0,-1101.0,-602.0,1,1
206,384.7979,-1341.7648,-956.9669,1342.4151,385.4482,0.3001,385.7483,0.3668,275,0,-275,0.1921,0;0.5;0,0,385.3695,0.0,-1101.0,-598.0,1,1
207,386.1151,-1343.0820,-956.9669,1343.5656,386.5987,0.3001,386.8988,0.3668,275,0,-275,0.0671,1;0;0,0,386.5118,1.0,1075.0,-688.0,1,0
208,387.2656,-1344.2325,-956.9669,1344.7994,387.8325,0.3001,388.1326,0.3668,275,0.2,-275,0.2082,1;0;0,0,387.7539,1.0,1075.0,-688.0,1,0
209,388.4994,-1345.4663,-956.9669,1347.0003,390.0334,0.3001,390.3335,0.3668,275,0.2,-275,0.2082,1;0;0,0,389.9548,1.0,1076.0,-687.0,1,0
210,390.7003,-1347.6672,-956.9669,1348.4342,391.4673,0.3001,391.7674,0.3668,275,0,-275,0.1921,0;0.5;0,0,391.3806,0.0,-1104.0,-594.0,1,1
211,392.1342,-1349.1011,-956.9669,1352.0357,395.0688,0.3001,395.3689,0.3668,-275,0.0088,275,0.0323,0;0.5;0,1,394.9902,1.0,1074.0,-690.0,1,1
212,395.7357,-1352.7026,-956.9669,1353.3862,396.4193,0.3001,396.7194,0.3668,275,0.45,-275,0.5171,0;0.5;0,0,396.3408,0.0,-1103.0,-594.0,1,1
213,397.0862,-1354.0531,-956.9669,1354.7201,397.7532,0.3001,398.0533,0.3668,-275,0.45,275,0.4582,1;0;0,1,397.6745,0.0,-1104.0,-596.0,1,0
214,398.4201,-1355.3870,-956.9669,1356.0706,399.1037,0.3001,399.4038,0.3668,275,0.0167,-275,0.0402,1;0;0,0,399.0251,1.0,1073.0,-690.0,1,0
215,399.7707,-1356.7376,-956.9669,1357.2878,400.3209,0.3001,400.6210,0.3668,-275,0.0088,275,0.0759,0;0.5;0,1,400.2339,1.0,1076.0,-689.0,1,1
216,400.9878,-1357.9547,-956.9669,1359.9222,402.9553,0.3001,403.2554,0.3668,-275,0.05,275,0.0582,1;0;0,1,402.8767,0.0,-1106.0,-597.0,1,0
217,403.6222,-1360.5891,-956.9669,1361.3561,404.3892,0.3001,404.6893,0.3668,275,0.45,-275,0.4735,0;0.5;0,0,404.3023,0.0,-1105.0,-595.0,1,1
218,405.0561,-1362.0230,-956.9669,1362.9401,405.9732,0.3001,406.2733,0.3668,275,0,-275,0.0235,1;0;0,0,405.8948,1.0,1074.0,-690.0,1,0
219,406.6401,-1363.6070,-956.9669,1364.5907,407.6238,0.3001,407.9240,0.3668,-275,0.0167,275,0.0402,0;0.5;0,1,407.5369,1.0,1077.0,-688.0,1,1
220,408.2908,-1365.2577,-956.9669,1365.9413,408.9744,0.3001,409.2745,0.3668,275,0.2,-275,0.2082,0;0.5;0,0,408.8958,0.0,-1108.0,-594.0,1,1
221,409.6413,-1366.6082,-956.9669,1366.8583,409.8914,0.3001,410.1915,0.3668,-275,0.0167,275,0.0196,0;0.5;0,1,409.8044,1.0,1076.0,-690.0,1,1
222,410.5584,-1367.5253,-956.9669,1368.4590,411.4921,0.3001,411.7922,0.3668,-275,0.0088,275,0.017,0;0.5;0,1,411.4054,1.0,1078.0,-687.0,1,1
223,412.1590,-1369.1259,-956.9669,1369.8262,412.8593,0.3001,413.1594,0.3668,275,0.0167,-275,0.0838,0;0.5;0,0,412.7807,0.0,-1109.0,-597.0,1,1
224,413.5262,-1370.4931,-956.9669,1370.6932,413.7263,0.3001,414.0264,0.3668,-275,0.0088,275,0.0098,0;0.5;0,1,413.6395,1.0,1077.0,-687.0,1,1
225,414.3932,-1371.3602,-956.9669,1371.7603,414.7934,0.3001,415.0935,0.3668,275,0.45,-275,0.4582,1;0;0,0,414.7150,1.0,1079.0,-687.0,1,0
226,415.4603,-1372.4273,-956.9669,1373.6111,416.6442,0.3001,416.9443,0.3668,275,0.05,-275,0.2421,0;0.5;0,0,416.5573,0.0,-1108.0,-596.0,1,1
227,417.3111,-1374.2780,-956.9669,1374.8782,417.9113,0.3001,418.2115,0.3668,-275,0.45,275,0.4582,0;0.5;0,1,417.8245,1.0,1078.0,-687.0,1,1
228,418.5783,-1375.5452,-956.9669,1376.4289,419.4620,0.3001,419.7621,0.3668,275,0.2,-275,0.2671,1;0;0,0,419.3833,1.0,1080.0,-685.0,1,0
229,420.1289,-1377.0958,-956.9669,1378.0462,421.0793,0.3001,421.3794,0.3668,275,0.05,-275,0.1171,1;0;0,0,421.0007,1.0,1075.0,-686.0,1,0
230,421.7462,-1378.7131,-956.9669,1380.3471,423.3802,0.3001,423.6803,0.3668,275,0.05,-275,0.0582,1;0;0,0,423.2933,1.0,1076.0,-688.0,1,0
231,424.0472,-1381.0141,-956.9669,1381.9811,425.0142,0.3001,425.3143,0.3668,275,0,-275,0.0029,1;0;0,0,424.9356,1.0,1078.0,-684.0,1,0
232,425.6812,-1382.6481,-956.9669,1383.2316,426.2647,0.3001,426.5648,0.3668,275,0.0088,-275,0.2009,0;0.5;0,0,426.1779,0.0,-1105.0,-597.0,1,1
233,426.9317,-1383.8986,-956.9669,1384.3654,427.3985,0.3001,427.6986,0.3668,275,0.05,-275,0.6,0;0.5;0,0,427.3116,0.0,-1101.0,-597.0,1,1
234,428.0655,-1385.0324,-956.9669,1385.9327,428.9658,0.3001,429.2659,0.3668,275,0.2,-275,0.2235,0;0.5;0,0,428.8872,0.0,-1099.0,-599.0,1,1
235,429.6328,-1386.5997,-956.9669,1387.5000,430.5331,0.3001,430.8332,0.3668,275,0,-275,0.1921,0;0.5;0,0,430.4461,0.0,-1099.0,-599.0,1,1
236,431.2001,-1388.1670,-956.9669,1388.5671,431.6002,0.3001,431.9003,0.3668,275,0,-275,0.1921,0;0.5;0,0,431.5133,0.0,-1103.0,-598.0,1,1
237,432.2672,-1389.2341,-956.9669,1390.4345,433.4676,0.3001,433.7678,0.3668,275,0,-275,0.0082,1;0;0,0,433.3892,1.0,1080.0,-685.0,1,0
238,434.1346,-1391.1015,-956.9669,1392.0185,435.0516,0.3001,435.3517,0.3668,275,0.0088,-275,0.017,1;0;0,0,434.9648,1.0,1078.0,-685.0,1,0
239,435.7185,-1392.6855,-956.9669,1393.3691,436.4022,0.3001,436.7023,0.3668,-275,0.05,275,0.2421,0;0.5;0,1,436.3235,1.0,1075.0,-685.0,1,1
240,437.0691,-1394.0360,-956.9669,1394.8863,437.9194,0.3001,438.2196,0.3668,275,0.45,-275,0.5171,0;0.5;0,0,437.8326,0.0,-1082.0,-602.0,1,1
241,438.5864,-1395.5533,-956.9669,1396.7037,439.7368,0.3001,440.0370,0.3668,-275,0,275,0.1921,0;0.5;0,1,439.6582,1.0,1076.0,-686.0,1,1
242,440.4038,-1397.3707,-956.9669,1398.7879,441.8210,0.3001,442.1211,0.3668,-275,0.0088,275,0.0323,0;0.5;0,1,441.7340,1.0,1074.0,-688.0,1,1
243,442.4880,-1399.4549,-956.9669,1400.6053,443.6384,0.3001,443.9385,0.3668,275,0.2,-275,0.2082,0;0.5;0,0,443.5515,0.0,-1081.0,-603.0,1,1
244,444.3054,-1401.2723,-956.9669,1402.0059,445.0390,0.3001,445.3391,0.3668,275,0,-275,0.1921,0;0.5;0,0,444.9523,0.0,-1086.0,-606.0,1,1
245,445.7059,-1402.6728,-956.9669,1403.4231,446.4562,0.3001,446.7563,0.3668,-275,0.0088,275,0.0323,0;0.5;0,1,446.3776,1.0,1074.0,-688.0,1,1
246,447.1232,-1404.0901,-956.9669,1404.6903,447.7234,0.3001,448.0235,0.3668,275,0.0088,-275,0.2009,0;0.5;0,0,447.6449,0.0,-1086.0,-605.0,1,1
247,448.3903,-1405.3572,-956.9669,1405.9742,449.0073,0.3001,449.3074,0.3668,-275,0.45,275,0.4735,1;0;0,1,448.9287,0.0,-1084.0,-607.0,1,0
248,449.6742,-1406.6411,-956.9669,1407.5748,450.6079,0.3001,450.9080,0.3668,275,0.0167,-275,0.2088,0;0.5;0,0,450.5295,0.0,-1085.0,-607.0,1,1
249,451.2748,-1408.2417,-956.9669,1410.0425,453.0756,0.3001,453.3757,0.3668,275,0,-275,0.0235,1;0;0,0,452.9887,1.0,1074.0,-688.0,1,0
250,453.7425,-1410.7094,-956.9669,1411.1763,454.2094,0.3001,454.5095,0.3668,-275,0.45,275,0.5171,1;0;0,1,454.1224,0.0,-1080.0,-612.0,1,0
251,454.8763,-1411.8432,-956.9669,1412.1600,455.1931,0.3001,455.4932,0.3668,275,0,-275,0.0671,1;0;0,0,455.1145,1.0,1073.0,-689.0,1,0
252,455.8600,-1412.8269,-956.9669,1413.4439,456.4770,0.3001,456.7771,0.3668,275,0.0088,-275,0.0098,1;0;0,0,456.3983,1.0,1076.0,-688.0,1,0
253,457.1439,-1414.1108,-956.9669,1414.9611,457.9942,0.3001,458.2944,0.3668,-275,0.0167,275,0.0249,0;0.5;0,1,457.9073,1.0,1066.0,-698.0,1,1
254,458.6612,-1415.6281,-956.9669,1416.2283,459.2614,0.3001,459.5615,0.3668,-275,0.05,275,0.2421,0;0.5;0,1,459.1745,1.0,1073.0,-690.0,1,1
255,459.9283,-1416.8953,-956.9669,1417.2621,460.2952,0.3001,460.5953,0.3668,-275,0.05,275,0.6,0;0.5;0,1,460.2083,1.0,1073.0,-690.0,1,1
256,460.9621,-1417.9290,-956.9669,1418.4959,461.5290,0.3001,461.8291,0.3668,275,0.0088,-275,0.0117,1;0;0,0,461.4422,1.0,1072.0,-690.0,1,0
257,462.1959,-1419.1628,-956.9669,1419.6130,462.6461,0.3001,462.9462,0.3668,-275,0.2,275,1,0;0.5;0,1,462.5594,1.0,1071.0,-690.0,1,1
258,463.3131,-1420.2800,-956.9669,1421.4971,464.5302,0.3001,464.8303,0.3668,275,0,-275,0.0671,1;0;0,0,464.4516,1.0,1075.0,-688.0,1,0
259,465.1971,-1422.1641,-956.9669,1422.6643,465.6973,0.3001,465.9975,0.3668,-275,0,275,0.0235,0;0.5;0,1,465.6106,1.0,1071.0,-691.0,1,1
260,466.3643,-1423.3312,-956.9669,1424.0315,467.0646,0.3001,467.3647,0.3668,275,0.45,-275,0.6421,0;0.5;0,0,466.9860,0.0,-1051.0,-626.0,1,1
261,467.7315,-1424.6984,-956.9669,1425.3487,468.3818,0.3001,468.6819,0.3668,275,0.05,-275,0.0582,0;0.5;0,0,468.2950,0.0,-1053.0,-627.0,1,1
262,469.0487,-1426.0156,-956.9669,1426.5992,469.6323,0.3001,469.9324,0.3668,275,0.45,-275,0.4735,0;0.5;0,0,469.5537,0.0,-1052.0,-631.0,1,1
263,470.2992,-1427.2661,-956.9669,1428.3832,471.4163,0.3001,471.7165,0.3668,275,0.05,-275,0.0582,0;0.5;0,0,471.3296,0.0,-1060.0,-630.0,1,1
264,472.0833,-1429.0502,-956.9669,1429.5837,472.6168,0.3001,472.9169,0.3668,275,0.2,-275,0.2671,0;0.5;0,0,472.5383,0.0,-1062.0,-634.0,1,1
265,473.2838,-1430.2507,-956.9669,1431.1010,474.1341,0.3001,474.4342,0.3668,275,0.0088,-275,0.0759,0;0.5;0,0,474.0556,0.0,-1063.0,-634.0,1,1
266,474.8010,-1431.7679,-956.9669,1432.6850,475.7181,0.3001,476.0182,0.3668,-275,0.2,275,0.2671,1;0;0,1,475.6397,0.0,-1070.0,-631.0,1,0
267,476.3850,-1433.3519,-956.9669,1433.8688,476.9019,0.3001,477.2020,0.3668,-275,0.05,275,0.2421,0;0.5;0,1,476.8150,1.0,1071.0,-688.0,1,1
268,477.5688,-1434.5357,-956.9669,1435.5195,478.5526,0.3001,478.8527,0.3668,-275,0.0088,275,0.0098,0;0.5;0,1,478.4739,1.0,1067.0,-691.0,1,1
269,479.2195,-1436.1864,-956.9669,1437.5536,480.5867,0.3001,480.8868,0.3668,275,0.05,-275,0.0529,1;0;0,0,480.4998,1.0,1061.0,-703.0,1,0
270,481.2536,-1438.2205,-956.9669,1439.2376,482.2707,0.3001,482.5708,0.3668,275,0.0167,-275,0.0177,1;0;0,0,482.1922,1.0,1064.0,-699.0,1,0
271,482.9377,-1439.9046,-956.9669,1440.6715,483.7046,0.3001,484.0048,0.3668,275,0.45,-275,0.6421,0;0.5;0,0,483.6177,0.0,-1043.0,-642.0,1,1
272,484.3716,-1441.3385,-956.9669,1441.5719,484.6050,0.3001,484.9051,0.3668,-275,0.05,275,0.0735,0;0.5;0,1,484.5263,1.0,1066.0,-697.0,1,1
273,485.2719,-1442.2388,-956.9669,1443.0392,486.0723,0.3001,486.3724,0.3668,-275,0.0167,275,0.2088,0;0.5;0,1,485.9855,1.0,1064.0,-695.0,1,1
274,486.7392,-1443.7061,-956.9669,1444.5398,487.5729,0.3001,487.8730,0.3668,275,0.05,-275,0.0582,1;0;0,0,487.4943,1.0,1062.0,-690.0,1,0
275,488.2398,-1445.2067,-956.9669,1445.7569,488.7900,0.3001,489.0901,0.3668,-275,0.45,275,0.4735,0;0.5;0,1,488.7116,1.0,1060.0,-695.0,1,1
276,489.4570,-1446.4239,-956.9669,1446.9741,490.0072,0.3001,490.3073,0.3668,-275,0.45,275,0.6421,0;0.5;0,1,489.9204,1.0,1064.0,-693.0,1,1
277,490.6741,-1447.6410,-956.9669,1448.1913,491.2243,0.3001,491.5245,0.3668,275,0.0167,-275,0.0838,1;0;0,0,491.1459,1.0,1062.0,-695.0,1,0
278,491.8913,-1448.8582,-956.9669,1449.4751,492.5082,0.3001,492.8083,0.3668,275,0.05,-275,0.1171,1;0;0,0,492.4213,1.0,1064.0,-695.0,1,0
279,493.1751,-1450.1420,-956.9669,1450.7256,493.7587,0.3001,494.0588,0.3668,-275,0.05,275,0.0582,0;0.5;0,1,493.6717,1.0,1057.0,-699.0,1,1
280,494.4256,-1451.3925,-956.9669,1451.9761,495.0092,0.3001,495.3093,0.3668,275,0.0167,-275,0.0402,1;0;0,0,494.9307,1.0,1060.0,-696.0,1,0
281,495.6761,-1452.6431,-956.9669,1453.3433,496.3764,0.3001,496.6766,0.3668,275,0.05,-275,0.0582,0;0.5;0,0,496.2894,0.0,-1046.0,-639.0,1,1
282,497.0434,-1454.0103,-956.9669,1454.5772,497.6103,0.3001,497.9104,0.3668,275,0,-275,0.1921,0;0.5;0,0,497.5316,0.0,-1048.0,-641.0,1,1
283,498.2772,-1455.2441,-956.9669,1455.3775,498.4106,0.3001,498.7107,0.3668,-275,0,275,0.1921,0;0.5;0,1,498.3236,1.0,1064.0,-695.0,1,1
284,499.0775,-1456.0444,-956.9669,1456.3279,499.3610,0.3001,499.6611,0.3668,275,0.05,-275,0.0735,1;0;0,0,499.2741,1.0,1066.0,-695.0,1,0
285,500.0279,-1456.9948,-956.9669,1457.2282,500.2613,0.3001,500.5615,0.3668,275,0.0167,-275,0.0838,0;0.5;0,0,500.1745,0.0,-1052.0,-633.0,1,1
286,500.9283,-1457.8952,-956.9669,1458.0119,501.0450,0.3001,501.3451,0.3668,275,0.2,-275,0.75,1;0;0,0,500.9581,1.0,1061.0,-695.0,1,0
287,501.7119,-1458.6788,-956.9669,1460.0961,503.1292,0.3001,503.4293,0.3668,275,0.05,-275,0.0735,1;0;0,0,503.0505,1.0,1063.0,-697.0,1,0
288,503.7961,-1460.7630,-956.9669,1461.3132,504.3463,0.3001,504.6464,0.3668,275,0.0167,-275,0.0196,0;0.5;0,0,504.2678,0.0,-1056.0,-633.0,1,1
289,505.0133,-1461.9802,-956.9669,1462.2136,505.2467,0.3001,505.5468,0.3668,-275,0.45,275,1,0;0.5;0,1,505.1598,1.0,1057.0,-700.0,1,1
290,505.9136,-1462.8805,-956.9669,1463.8142,506.8473,0.3001,507.1475,0.3668,-275,0.0167,275,0.0838,0;0.5;0,1,506.7603,1.0,1058.0,-702.0,1,1
291,507.5143,-1464.4812,-956.9669,1465.0481,508.0812,0.3001,508.3813,0.3668,-275,0.45,275,0.6421,0;0.5;0,1,507.9942,1.0,1058.0,-699.0,1,1
292,508.7481,-1465.7150,-956.9669,1467.5491,510.5822,0.3001,510.8823,0.3668,275,0.0167,-275,0.0402,1;0;0,0,510.4953,1.0,1059.0,-700.0,1,0
293,511.2491,-1468.2160,-956.9669,1468.7162,511.7493,0.3001,512.0494,0.3668,275,0,-275,0.0082,1;0;0,0,511.6708,1.0,1062.0,-695.0,1,0
294,512.4163,-1469.3832,-956.9669,1469.8000,512.8331,0.3001,513.1332,0.3668,-275,0.45,275,0.4582,0;0.5;0,1,512.7461,1.0,1064.0,-697.0,1,1
295,513.5000,-1470.4669,-956.9669,1471.2506,514.2837,0.3001,514.5838,0.3668,275,0.45,-275,1,0;0.5;0,0,514.2050,0.0,-1043.0,-628.0,1,1
296,514.9506,-1471.9175,-956.9669,1472.2843,515.3174,0.3001,515.6175,0.3668,275,0,-275,0.0029,1;0;0,0,515.2304,1.0,1065.0,-695.0,1,0
297,515.9844,-1472.9513,-956.9669,1473.5015,516.5346,0.3001,516.8347,0.3668,-275,0.2,275,0.2082,0;0.5;0,1,516.4560,1.0,1065.0,-694.0,1,1
298,517.2015,-1474.1684,-956.9669,1474.7020,517.7351,0.3001,518.0352,0.3668,-275,0.2,275,0.2082,0;0.5;0,1,517.6564,1.0,1063.0,-693.0,1,1
299,518.4020,-1475.3689,-956.9669,1476.1526,519.1857,0.3001,519.4858,0.3668,-275,0,275,0.0671,0;0.5;0,1,519.0987,1.0,1065.0,-694.0,1,1
300,519.8526,-1476.8195,-956.9669,1477.5531,520.5862,0.3001,520.8863,0.3668,-275,0.0088,275,0.0117,0;0.5;0,1,520.4994,1.0,1066.0,-691.0,1,1
301,521.2532,-1478.2201,-956.9669,1479.4372,522.4703,0.3001,522.7704,0.3668,275,0.0167,-275,0.0196,1;0;0,0,522.3918,1.0,1065.0,-693.0,1,0
302,523.1373,-1480.1042,-956.9669,1480.8711,523.9042,0.3001,524.2044,0.3668,-275,0,275,0.1921,0;0.5;0,1,523.8256,1.0,1061.0,-697.0,1,1
303,524.5712,-1481.5381,-956.9669,1482.1550,525.1881,0.3001,525.4882,0.3668,-275,0.05,275,0.1171,0;0.5;0,1,525.1097,1.0,1065.0,-694.0,1,1
304,525.8550,-1482.8219,-956.9669,1483.5889,526.6220,0.3001,526.9221,0.3668,-275,0,275,0.0235,0;0.5;0,1,526.5353,1.0,1062.0,-697.0,1,1
305,527.2889,-1484.2558,-956.9669,1485.1062,528.1393,0.3001,528.4394,0.3668,275,0.2,-275,0.2235,0;0.5;0,0,528.0607,0.0,-1040.0,-624.0,1,1
306,528.8062,-1485.7731,-956.9669,1486.4901,529.5232,0.3001,529.8233,0.3668,275,0.0088,-275,0.0759,0;0.5;0,0,529.4362,0.0,-1045.0,-635.0,1,1
307,530.1901,-1487.1570,-956.9669,1487.4905,530.5236,0.3001,530.8237,0.3668,-275,0.05,275,0.0735,0;0.5;0,1,530.4451,1.0,1065.0,-693.0,1,1
308,531.1905,-1488.1574,-956.9669,1489.0745,532.1076,0.3001,532.4077,0.3668,-275,0.0088,275,0.0117,0;0.5;0,1,532.0290,1.0,1065.0,-693.0,1,1
309,532.7745,-1489.7414,-956.9669,1490.6084,533.6415,0.3001,533.9416,0.3668,-275,0.05,275,0.0529,0;0.5;0,1,533.5629,1.0,1060.0,-701.0,1,1
310,534.3084,-1491.2753,-956.9669,1492.1257,535.1588,0.3001,535.4589,0.3668,-275,0.0088,275,0.0323,0;0.5;0,1,535.0718,1.0,1065.0,-696.0,1,1
311,535.8257,-1492.7926,-956.9669,1493.4429,536.4760,0.3001,536.7761,0.3668,-275,0.0167,275,0.0249,0;0.5;0,1,536.3974,1.0,1057.0,-702.0,1,1
312,537.1429,-1494.1098,-956.9669,1495.2436,538.2767,0.3001,538.5768,0.3668,275,0.05,-275,0.0529,0;0.5;0,0,538.1982,0.0,-1040.0,-632.0,1,1
313,538.9436,-1495.9106,-956.9669,1496.4108,539.4439,0.3001,539.7440,0.3668,275,0.45,-275,0.6421,0;0.5;0,0,539.3569,0.0,-1040.0,-636.0,1,1
314,540.1108,-1497.0777,-956.9669,1497.2778,540.3109,0.3001,540.6110,0.3668,275,0.0088,-275,0.0117,1;0;0,0,540.2322,1.0,1054.0,-704.0,1,0
315,540.9778,-1497.9447,-956.9669,1498.4783,541.5114,0.3001,541.8115,0.3668,275,0.0167,-275,0.0402,0;0.5;0,0,541.4245,0.0,-1043.0,-637.0,1,1
316,542.1783,-1499.1452,-956.9669,1499.6120,542.6451,0.3001,542.9453,0.3668,-275,0.2,275,0.75,0;0.5;0,1,542.5666,1.0,1062.0,-697.0,1,1
317,543.3121,-1500.2790,-956.9669,1500.7292,543.7623,0.3001,544.0624,0.3668,275,0.2,-275,0.75,0;0.5;0,0,543.6755,0.0,-1043.0,-642.0,1,1
318,544.4292,-1501.3961,-956.9669,1501.9797,545.0128,0.3001,545.3129,0.3668,-275,0.05,275,0.1171,0;0.5;0,1,544.9258,1.0,1059.0,-699.0,1,1
319,545.6797,-1502.6466,-956.9669,1503.4136,546.4467,0.3001,546.7468,0.3668,-275,0.0088,275,0.0117,1;0;0,1,546.3681,0.0,-1054.0,-635.0,1,0
320,547.1136,-1504.0805,-956.9669,1504.8975,547.9306,0.3001,548.2307,0.3668,275,0.05,-275,0.0735,0;0.5;0,0,547.8520,0.0,-1053.0,-636.0,1,1
321,548.5976,-1505.5645,-956.9669,1507.0984,550.1315,0.3001,550.4316,0.3668,-275,0.2,275,0.2235,0;0.5;0,1,550.0445,1.0,1057.0,-702.0,1,1
322,550.7984,-1507.7653,-956.9669,1511.0000,554.0331,0.3001,554.3332,0.3668,275,0,-275,0.0082,1;0;0,0,553.9545,1.0,1060.0,-699.0,1,0
323,554.7000,-1511.6669,-956.9669,1512.2838,555.3169,0.3001,555.6171,0.3668,-275,0.45,275,0.4735,1;0;0,1,555.2301,0.0,-1054.0,-642.0,1,0
324,555.9839,-1512.9508,-956.9669,1513.4843,556.5174,0.3001,556.8175,0.3668,275,0.2,-275,1,0;0.5;0,0,556.4389,0.0,-1055.0,-641.0,1,1
325,557.1844,-1514.1513,-956.9669,1514.6515,557.6846,0.3001,557.9847,0.3668,275,0.45,-275,1,0;0.5;0,0,557.6059,0.0,-1052.0,-641.0,1,1
326,558.3515,-1515.3184,-956.9669,1517.3025,560.3356,0.3001,560.6358,0.3668,275,0.2,-275,0.2671,0;0.5;0,0,560.2489,0.0,-1052.0,-640.0,1,1
327,561.0026,-1517.9695,-956.9669,1523.7718,566.8049,0.3001,567.1050,0.3668,-275,0,275,0.0235,0;0.5;0,1,566.7179,1.0,1050.0,-708.0,1,1
328,567.4718,-1524.4388,-956.9669,1525.0223,568.0554,0.3001,568.3555,0.3668,275,0.2,-275,0.2235,0;0.5;0,0,567.9686,0.0,-1052.0,-643.0,1,1
329,568.7224,-1525.6893,-956.9669,1526.2895,569.3226,0.3001,569.6227,0.3668,275,0.45,-275,0.4735,0;0.5;0,0,569.2358,0.0,-1053.0,-642.0,1,1
330,569.9895,-1526.9564,-956.9669,1527.7568,570.7899,0.3001,571.0900,0.3668,-275,0.0167,275,0.2088,0;0.5;0,1,570.7030,1.0,1056.0,-703.0,1,1
331,571.4568,-1528.4237,-956.9669,1529.4908,572.5239,0.3001,572.8240,0.0000,-275,0.2,275,0.2235,1;0;0,1,572.4454,0.0,-1064.0,-635.0,1,0
332,572.8240,-1529.7909,-956.9669,1530.2078,573.2408,0.3001,573.5410,0.3668,-275,0.05,275,0.6,0;0.5;0,1,573.1622,1.0,1056.0,-702.0,1,1
333,573.9078,-1530.8747,-956.9669,1531.2248,574.2579,0.3001,574.5580,0.3668,-275,0.2,275,1,0;0.5;0,1,574.1711,1.0,1058.0,-701.0,1,1
334,574.9249,-1531.8918,-956.9669,1532.2753,575.3084,0.3001,575.6085,0.3668,-275,0.45,275,0.5171,0;0.5;0,1,575.2299,1.0,1055.0,-703.0,1,1
335,575.9753,-1532.9422,-956.9669,1533.5258,576.5589,0.3001,576.8590,0.3668,275,0.45,-275,0.6421,0;0.5;0,0,576.4803,0.0,-1062.0,-631.0,1,1
336,577.2258,-1534.1927,-956.9669,1534.9930,578.0261,0.3001,578.3262,0.3668,275,0.2,-275,0.3921,0;0.5;0,0,577.9475,0.0,-1067.0,-633.0,1,1
337,578.6931,-1535.6600,-956.9669,1535.7767,578.8098,0.3001,579.1099,0.3668,275,0.0167,-275,0.0196,1;0;0,0,578.7229,1.0,1057.0,-703.0,1,0
338,579.4767,-1536.4436,-956.9669,1536.8104,579.8435,0.3001,580.1436,0.3668,275,0.0088,-275,0.0759,1;0;0,0,579.7649,1.0,1061.0,-697.0,1,0
339,580.5105,-1537.4774,-956.9669,1538.1776,581.2107,0.3001,581.5109,0.3668,275,0.0088,-275,0.017,0;0.5;0,0,581.1238,0.0,-1075.0,-630.0,1,1
340,581.8777,-1538.8446,-956.9669,1538.9780,582.0111,0.3001,582.3112,0.3668,275,0.0167,-275,0.0249,1;0;0,0,581.9242,1.0,1060.0,-700.0,1,0
341,582.6780,-1539.6449,-956.9669,1540.2618,583.2949,0.3001,583.5950,0.3668,275,0.05,-275,0.1171,0;0.5;0,0,583.2164,0.0,-1076.0,-632.0,1,1
342,583.9618,-1540.9288,-956.9669,1541.4123,584.4454,0.3001,584.7455,0.3668,275,0.2,-275,1,0;0.5;0,0,584.3668,0.0,-1076.0,-630.0,1,1
343,585.1123,-1542.0792,-956.9669,1543.0463,586.0794,0.3001,586.3795,0.3668,275,0.0167,-275,0.0249,1;0;0,0,586.0009,1.0,1056.0,-704.0,1,0
344,586.7463,-1543.7132,-956.9669,1544.1801,587.2132,0.3001,587.5133,0.3668,275,0.45,-275,0.6421,0;0.5;0,0,587.1345,0.0,-1075.0,-628.0,1,1
345,587.8801,-1544.8470,-956.9669,1545.7140,588.7471,0.3001,589.0472,0.3668,-275,0.0088,275,0.0098,0;0.5;0,1,588.6688,1.0,1057.0,-704.0,1,1
346,589.4141,-1546.3810,-956.9669,1546.6311,589.6642,0.3001,589.9643,0.3668,275,0.0088,-275,0.0117,1;0;0,0,589.5858,1.0,1060.0,-702.0,1,0
347,590.3311,-1547.2980,-956.9669,1547.8149,590.8480,0.3001,591.1481,0.3668,275,0.2,-275,0.75,0;0.5;0,0,590.7693,0.0,-1070.0,-617.0,1,1
348,591.5149,-1548.4818,-956.9669,1549.2821,592.3152,0.3001,592.6153,0.3668,-275,0.0167,275,0.0402,0;0.5;0,1,592.2284,1.0,1057.0,-703.0,1,1
349,592.9822,-1549.9491,-956.9669,1550.0658,593.0989,0.3001,593.3990,0.3668,-275,0.2,275,1,0;0.5;0,1,593.0203,1.0,1062.0,-700.0,1,1
350,593.7658,-1550.7327,-956.9669,1551.0995,594.1326,0.3001,594.4327,0.3668,-275,0.0088,275,0.017,0;0.5;0,1,594.0541,1.0,1053.0,-706.0,1,1
351,594.7996,-1551.7665,-956.9669,1552.6001,595.6332,0.3001,595.9334,0.3668,-275,0,275,0.0235,0;0.5;0,1,595.5464,1.0,1051.0,-709.0,1,1
352,596.3002,-1553.2671,-956.9669,1553.4171,596.4502,0.3001,596.7504,0.3668,-275,0,275,0.001,0;0.5;0,1,596.3635,1.0,1057.0,-703.0,1,1
353,597.1172,-1554.0841,-956.9669,1554.2842,597.3172,0.3001,597.6174,0.3668,275,0.0167,-275,0.2088,1;0;0,0,597.2304,1.0,1057.0,-703.0,1,0
354,597.9842,-1554.9511,-956.9669,1555.1845,598.2176,0.3001,598.5177,0.3668,-275,0.2,275,0.75,0;0.5;0,1,598.1389,1.0,1052.0,-706.0,1,1
355,598.8845,-1555.8515,-956.9669,1556.1349,599.1680,0.3001,599.4681,0.3668,-275,0.0088,275,0.2009,0;0.5;0,1,599.0811,1.0,1049.0,-709.0,1,1
356,599.8349,-1556.8018,-956.9669,1557.3354,600.3685,0.3001,600.6686,0.3668,-275,0.0167,275,0.0249,0;0.5;0,1,600.2818,1.0,1052.0,-706.0,1,1
357,601.0354,-1558.0023,-956.9669,1558.4858,601.5189,0.3001,601.8191,0.3668,275,0,-275,0.0671,0;0.5;0,0,601.4406,0.0,-1071.0,-634.0,1,1
358,602.1859,-1559.1528,-956.9669,1559.6030,602.6361,0.3001,602.9362,0.3668,-275,0.0167,275,0.0838,0;0.5;0,1,602.5575,1.0,1052.0,-708.0,1,1
359,603.3030,-1560.2699,-956.9669,1560.6367,603.6698,0.3001,603.9699,0.3668,-275,0.0088,275,0.0098,0;0.5;0,1,603.5828,1.0,1054.0,-706.0,1,1
360,604.3367,-1561.3037,-956.9669,1561.4704,604.5035,0.3001,604.8036,0.3668,275,0.0167,-275,0.0249,1;0;0,0,604.4250,1.0,1054.0,-708.0,1,0
361,605.1704,-1562.1373,-956.9669,1562.2707,605.3038,0.3001,605.6039,0.3668,275,0,-275,0.0671,1;0;0,0,605.2169,1.0,1055.0,-708.0,1,0
362,605.9707,-1562.9376,-956.9669,1563.8880,606.9211,0.3001,607.2212,0.3668,275,0.0088,-275,0.2009,0;0.5;0,0,606.8342,0.0,-1050.0,-624.0,1,1
363,607.5881,-1564.5550,-956.9669,1565.5387,608.5718,0.3001,608.8719,0.3668,-275,0.0088,275,0.0759,0;0.5;0,1,608.4849,1.0,1048.0,-714.0,1,1
364,609.2387,-1566.2056,-956.9669,1566.6558,609.6889,0.3001,609.9890,0.3668,275,0.0088,-275,0.2009,0;0.5;0,0,609.6021,0.0,-1055.0,-630.0,1,1
365,610.3558,-1567.3228,-956.9669,1568.6566,611.6897,0.3001,611.9898,0.3668,275,0.0167,-275,0.0196,1;0;0,0,611.6027,1.0,1050.0,-708.0,1,0
366,612.3567,-1569.3236,-956.9669,1569.9572,612.9902,0.3001,613.2904,0.3668,275,0.45,-275,0.5171,0;0.5;0,0,612.9117,0.0,-1053.0,-634.0,1,1
367,613.6572,-1570.6241,-956.9669,1571.3744,614.4075,0.3001,614.7076,0.0000,-275,0.45,275,0.4735,1;0;0,1,614.3290,0.0,-1058.0,-636.0,1,0
368,614.7076,-1571.6745,-956.9669,1572.0913,615.1244,0.3001,615.4246,0.3668,275,0,-275,0.0235,1;0;0,0,615.0375,1.0,1048.0,-709.0,1,0
369,615.7914,-1572.7583,-956.9669,1573.0084,616.0415,0.3001,616.3416,0.3668,275,0.0167,-275,0.0402,1;0;0,0,615.9545,1.0,1053.0,-706.0,1,0
370,616.7084,-1573.6753,-956.9669,1574.5257,617.5588,0.3001,617.8589,0.3668,-275,0.0167,275,0.0196,0;0.5;0,1,617.4801,1.0,1053.0,-708.0,1,1
371,618.2257,-1575.1926,-956.9669,1576.7932,619.8263,0.3001,620.1265,0.3668,275,0,-275,0.001,1;0;0,0,619.7396,1.0,1052.0,-707.0,1,0
372,620.4933,-1577.4602,-956.9669,1578.0104,621.0435,0.3001,621.3436,0.3668,275,0.05,-275,0.6,0;0.5;0,0,620.9565,0.0,-1058.0,-623.0,1,1
373,621.7104,-1578.6773,-956.9669,1579.4610,622.4941,0.3001,622.7942,0.3668,-275,0.2,275,0.2671,1;0;0,1,622.4071,0.0,-1053.0,-632.0,1,0
374,623.1610,-1580.1279,-956.9669,1580.8115,623.8446,0.3001,624.1448,0.3668,275,0.2,-275,0.2235,0;0.5;0,0,623.7661,0.0,-1057.0,-629.0,1,1
375,624.5116,-1581.4785,-956.9669,1582.5456,625.5787,0.3001,625.8788,0.3668,-275,0.05,275,0.0529,1;0;0,1,625.5000,0.0,-1057.0,-632.0,1,0
376,626.2456,-1583.2125,-956.9669,1583.9962,627.0293,0.3001,627.3294,0.3668,275,0,-275,0.0235,0;0.5;0,0,626.9507,0.0,-1053.0,-632.0,1,1
377,627.6962,-1584.6631,-956.9669,1585.2633,628.2964,0.3001,628.5966,0.3668,275,0.45,-275,0.6421,0;0.5;0,0,628.2096,0.0,-1057.0,-637.0,1,1
378,628.9634,-1585.9303,-956.9669,1586.6639,629.6970,0.3001,629.9971,0.3668,-275,0.2,275,0.2671,1;0;0,1,629.6184,0.0,-1058.0,-640.0,1,0
379,630.3639,-1587.3308,-956.9669,1587.8144,630.8475,0.3001,631.1476,0.3668,-275,0.45,275,0.5171,1;0;0,1,630.7689,0.0,-1057.0,-636.0,1,0
380,631.5144,-1588.4813,-956.9669,1591.6326,634.6657,0.3001,634.9658,0.3668,-275,0.0167,275,0.0249,0;0.5;0,1,634.5870,1.0,1054.0,-704.0,1,1
381,635.3326,-1592.2995,-956.9669,1592.9164,635.9495,0.3001,636.2496,0.3668,-275,0.45,275,0.6421,0;0.5;0,1,635.8710,1.0,1052.0,-704.0,1,1
382,636.6165,-1593.5834,-956.9669,1596.3678,639.4009,0.3001,639.7010,0.3668,275,0,-275,0.0082,1;0;0,0,639.3224,1.0,1049.0,-699.0,1,0
383,640.0679,-1597.0348,-956.9669,1597.7350,640.7681,0.3001,641.0683,0.3668,275,0.0088,-275,0.0759,0;0.5;0,0,640.6896,0.0,-1054.0,-643.0,1,1
384,641.4351,-1598.4020,-956.9669,1599.0689,642.1020,0.3001,642.4021,0.3668,275,0.45,-275,0.4735,1;0;0,0,642.0151,1.0,1054.0,-695.0,1,0
385,642.7689,-1599.7358,-956.9669,1600.3361,643.3692,0.3001,643.6693,0.3668,275,0.05,-275,0.6,0;0.5;0,0,643.2906,0.0,-1049.0,-632.0,1,1
386,644.0361,-1601.0030,-956.9669,1602.7871,645.8202,0.3001,646.1203,0.3668,275,0.0167,-275,0.0249,1;0;0,0,645.7417,1.0,1057.0,-696.0,1,0
387,646.4871,-1603.4540,-956.9669,1604.1376,647.1707,0.3001,647.4708,0.3668,-275,0.0088,275,0.0759,0;0.5;0,1,647.0921,1.0,1056.0,-693.0,1,1
388,647.8377,-1604.8046,-956.9669,1607.5057,650.5388,0.3001,650.8389,0.3668,275,0,-275,0.0235,1;0;0,0,650.4518,1.0,1053.0,-695.0,1,0
389,651.2057,-1608.1726,-956.9669,1609.4064,652.4395,0.3001,652.7396,0.3668,-275,0.0167,275,0.0196,0;0.5;0,1,652.3527,1.0,1048.0,-699.0,1,1
390,653.1065,-1610.0734,-956.9669,1610.7236,653.7567,0.3001,654.0568,0.3668,-275,0,275,0.0029,0;0.5;0,1,653.6697,1.0,1049.0,-699.0,1,1
391,654.4237,-1611.3906,-956.9669,1612.0408,655.0739,0.3001,655.3740,0.3668,-275,0.2,275,0.2082,1;0;0,1,654.9870,0.0,-1031.0,-642.0,1,0
392,655.7409,-1612.7078,-956.9669,1614.9587,657.9918,0.3001,658.2919,0.3668,275,0.45,-275,0.4735,1;0;0,0,657.9132,1.0,1051.0,-696.0,1,0
393,658.6587,-1615.6256,-956.9669,1616.0424,659.0755,0.3001,659.3757,0.3668,275,0.05,-275,0.2421,0;0.5;0,0,658.9970,0.0,-1038.0,-636.0,1,1
394,659.7425,-1616.7094,-956.9669,1616.8428,659.8759,0.3001,660.1760,0.3668,-275,0,275,0.0671,0;0.5;0,1,659.7890,1.0,1050.0,-698.0,1,1
395,660.5428,-1617.5097,-956.9669,1620.8277,663.8608,0.3001,664.1609,0.3668,275,0,-275,0.0082,1;0;0,0,663.7739,1.0,1047.0,-701.0,1,0
396,664.5277,-1621.4946,-956.9669,1622.5451,665.5782,0.3001,665.8783,0.3668,275,0.0088,-275,0.0759,1;0;0,0,665.4995,1.0,1047.0,-699.0,1,0
397,666.2451,-1623.2120,-956.9669,1623.4288,666.4618,0.3001,666.7620,0.3668,275,0.05,-275,0.2421,1;0;0,0,666.3749,1.0,1049.0,-697.0,1,0
398,667.1288,-1624.0957,-956.9669,1624.6626,667.6957,0.3001,667.9958,0.3668,-275,0.0167,275,0.0177,0;0.5;0,1,667.6171,1.0,1049.0,-699.0,1,1
399,668.3626,-1625.3295,-956.9669,1626.0465,669.0796,0.3001,669.3797,0.3668,275,0.0167,-275,0.0177,1;0;0,0,669.0010,1.0,1049.0,-698.0,1,0
400,669.7465,-1626.7134,-956.9669,1627.7138,670.7469,0.3001,671.0470,0.3668,275,0.0088,-275,0.0098,1;0;0,0,670.6685,1.0,1051.0,-696.0,1,0
401,671.4138,-1628.3808,-956.9669,1628.9643,671.9974,0.3001,672.2975,0.3668,275,0.45,-275,0.4582,0;0.5;0,0,671.9190,0.0,-994.0,-647.0,1,1
402,672.6644,-1629.6313,-956.9669,1629.9647,672.9978,0.3001,673.2979,0.3668,-275,0,275,0.001,0;0.5;0,1,672.9192,1.0,1051.0,-697.0,1,1
403,673.6648,-1630.6317,-956.9669,1631.2486,674.2817,0.3001,674.5818,0.3668,275,0,-275,0.0082,1;0;0,0,674.2031,1.0,1050.0,-699.0,1,0
404,674.9486,-1631.9155,-956.9669,1632.2490,675.2821,0.3001,675.5822,0.3668,275,0.0088,-275,0.0117,1;0;0,0,675.2035,1.0,1052.0,-695.0,1,0
405,675.9490,-1632.9159,-956.9669,1633.3828,676.4159,0.3001,676.7160,0.3668,-275,0.0088,275,0.0117,0;0.5;0,1,676.3290,1.0,1052.0,-695.0,1,1
406,677.0828,-1634.0497,-956.9669,1634.6666,677.6997,0.3001,677.9998,0.3668,-275,0,275,0.0029,0;0.5;0,1,677.6211,1.0,1052.0,-695.0,1,1
407,678.3667,-1635.3336,-956.9669,1636.0505,679.0836,0.3001,679.3837,0.3668,-275,0.45,275,0.6421,0;0.5;0,1,678.9967,1.0,1053.0,-689.0,1,1
408,679.7505,-1636.7175,-956.9669,1636.9009,679.9340,0.3001,680.2341,0.3668,-275,0.2,275,0.3921,0;0.5;0,1,679.8555,1.0,1052.0,-693.0,1,1
409,680.6009,-1637.5678,-956.9669,1638.1680,681.2011,0.3001,681.5013,0.3668,-275,0.0088,275,0.0323,0;0.5;0,1,681.1144,1.0,1055.0,-691.0,1,1
410,681.8681,-1638.8350,-956.9669,1639.3852,682.4183,0.3001,682.7184,0.3668,275,0.2,-275,0.2082,1;0;0,0,682.3314,1.0,1054.0,-691.0,1,0
411,683.0852,-1640.0521,-956.9669,1640.3523,683.3853,0.3001,683.6855,0.3668,275,0.05,-275,0.0529,1;0;0,0,683.2985,1.0,1056.0,-690.0,1,0
412,684.0523,-1641.0192,-956.9669,1641.4694,684.5025,0.3001,684.8026,0.3668,-275,0.2,275,1,0;0.5;0,1,684.4238,1.0,1057.0,-690.0,1,1
413,685.1694,-1642.1363,-956.9669,1642.4864,685.5195,0.3001,685.8197,0.3668,275,0.0088,-275,0.0323,1;0;0,0,685.4410,1.0,1057.0,-689.0,1,0
414,686.1865,-1643.1534,-956.9669,1644.3205,687.3536,0.3001,687.6537,0.3668,275,0.0167,-275,0.0402,1;0;0,0,687.2666,1.0,1053.0,-691.0,1,0
415,688.0206,-1644.9875,-956.9669,1645.4543,688.4874,0.3001,688.7875,0.3668,-275,0.2,275,1,0;0.5;0,1,688.4091,1.0,1054.0,-691.0,1,1
416,689.1543,-1646.1212,-956.9669,1646.4881,689.5212,0.3001,689.8213,0.3668,-275,0,275,0.0082,0;0.5;0,1,689.4425,1.0,1053.0,-693.0,1,1
417,690.1881,-1647.1550,-956.9669,1648.0554,691.0885,0.3001,691.3886,0.3668,-275,0.0167,275,0.0177,0;0.5;0,1,691.0015,1.0,1052.0,-693.0,1,1
418,691.7554,-1648.7223,-956.9669,1649.4559,692.4890,0.3001,692.7891,0.3668,275,0.45,-275,0.4582,1;0;0,0,692.4105,1.0,1053.0,-690.0,1,0
419,693.1560,-1650.1229,-956.9669,1653.4575,696.4906,0.3001,696.7908,0.3668,-275,0.0167,275,0.0838,0;0.5;0,1,696.4040,1.0,1047.0,-699.0,1,1
420,697.1576,-1654.1245,-956.9669,1654.6580,697.6911,0.3001,697.9912,0.3668,-275,0.0167,275,0.2088,0;0.5;0,1,697.6127,1.0,1053.0,-691.0,1,1
421,698.3581,-1655.3250,-956.9669,1655.8919,698.9250,0.3001,699.2251,0.3668,-275,0.2,275,0.3921,0;0.5;0,1,698.8465,1.0,1052.0,-694.0,1,1
422,699.5919,-1656.5588,-956.9669,1657.4091,700.4422,0.3001,700.7424,0.3668,-275,0,275,0.0029,0;0.5;0,1,700.3637,1.0,1052.0,-694.0,1,1
423,701.1092,-1658.0761,-956.9669,1660.6104,703.6435,0.3001,703.9436,0.3668,275,0.0167,-275,0.0196,1;0;0,0,703.5649,1.0,1054.0,-691.0,1,0
424,704.3105,-1661.2774,-956.9669,1661.9443,704.9774,0.3001,705.2775,0.3668,275,0.2,-275,1,0;0.5;0,0,704.8988,0.0,-1014.0,-637.0,1,1
425,705.6443,-1662.6112,-956.9669,1663.2282,706.2613,0.3001,706.5614,0.3668,-275,0.45,275,0.6421,0;0.5;0,1,706.1825,1.0,1050.0,-694.0,1,1
426,706.9282,-1663.8951,-956.9669,1671.2481,714.2812,0.3001,714.5813,0.3668,275,0.0088,-275,0.0098,1;0;0,0,714.2027,1.0,1045.0,-699.0,1,0
427,714.9481,-1671.9150,-956.9669,1673.4823,716.5154,0.3001,716.8155,0.3668,275,0.0088,-275,0.0098,1;0;0,0,716.4287,1.0,1049.0,-690.0,1,0
428,717.1823,-1674.1492,-956.9669,1674.7328,717.7659,0.3001,718.0660,0.3668,275,0,-275,0.0671,0;0.5;0,0,717.6874,0.0,-1014.0,-645.0,1,1
429,718.4328,-1675.3997,-956.9669,1677.1671,720.2002,0.3001,720.5003,0.3668,275,0,-275,0.001,1;0;0,0,720.1216,1.0,1051.0,-692.0,1,0
430,720.8671,-1677.8341,-956.9669,1678.5010,721.5341,0.3001,721.8342,0.3668,275,0.0167,-275,0.0838,0;0.5;0,0,721.4555,0.0,-1007.0,-639.0,1,1
431,722.2010,-1679.1679,-956.9669,1679.8515,722.8846,0.3001,723.1848,0.3668,-275,0.05,275,0.1171,0;0.5;0,1,722.8062,1.0,1049.0,-693.0,1,1
432,723.5516,-1680.5185,-956.9669,1680.9520,723.9851,0.3001,724.2852,0.3668,-275,0.05,275,0.6,0;0.5;0,1,723.9065,1.0,1049.0,-695.0,1,1
433,724.6520,-1681.6189,-956.9669,1682.0191,725.0522,0.3001,725.3523,0.3668,-275,0.2,275,0.2671,0;0.5;0,1,724.9736,1.0,1049.0,-693.0,1,1
434,725.7191,-1682.6860,-956.9669,1683.2529,726.2860,0.3001,726.5861,0.3668,275,0.45,-275,0.6421,0;0.5;0,0,726.2077,0.0,-1012.0,-638.0,1,1
435,726.9529,-1683.9198,-956.9669,1688.5050,731.5381,0.3001,731.8382,0.3668,275,0.0167,-275,0.0249,1;0;0,0,731.4512,1.0,1049.0,-695.0,1,0
436,732.2051,-1689.1720,-956.9669,1689.8722,732.9053,0.3001,733.2055,0.3668,-275,0.0088,275,0.0759,0;0.5;0,1,732.8268,1.0,1047.0,-695.0,1,1
437,733.5723,-1690.5392,-956.9669,1691.2395,734.2726,0.3001,734.5727,0.3668,-275,0.2,275,0.3921,0;0.5;0,1,734.1856,1.0,1049.0,-694.0,1,1
438,734.9395,-1691.9064,-956.9669,1692.7567,735.7898,0.3001,736.0900,0.3668,275,0.05,-275,0.6,0;0.5;0,0,735.7028,0.0,-1000.0,-636.0,1,1
439,736.4568,-1693.4237,-956.9669,1693.9572,736.9903,0.3001,737.2904,0.3668,-275,0.45,275,0.6421,0;0.5;0,1,736.9117,1.0,1042.0,-703.0,1,1
440,737.6573,-1694.6242,-956.9669,1696.1248,739.1579,0.3001,739.4580,0.3668,-275,0,275,0.0029,0;0.5;0,1,739.0710,1.0,1047.0,-697.0,1,1
441,739.8248,-1696.7917,-956.9669,1702.1105,745.1436,0.3001,745.4437,0.3668,-275,0,275,0.0671,0;0.5;0,1,745.0568,1.0,1041.0,-694.0,1,1
442,745.8105,-1702.7775,-956.9669,1703.3610,746.3941,0.3001,746.6942,0.3668,-275,0.2,275,0.2082,0;0.5;0,1,746.3157,1.0,1041.0,-697.0,1,1
443,747.0611,-1704.0280,-956.9669,1704.6782,747.7113,0.3001,748.0114,0.3668,275,0.0088,-275,0.017,1;0;0,0,747.6329,1.0,1041.0,-699.0,1,0
444,748.3783,-1705.3452,-956.9669,1705.8954,748.9285,0.3001,749.2286,0.3668,275,0.05,-275,0.2421,0;0.5;0,0,748.8499,0.0,-1010.0,-633.0,1,1
445,749.5954,-1706.5623,-956.9669,1706.6957,749.7288,0.3001,750.0289,0.3668,275,0.0167,-275,0.0249,1;0;0,0,749.6503,1.0,1037.0,-704.0,1,0
446,750.3957,-1707.3626,-956.9669,1708.5298,751.5629,0.3001,751.8630,0.3668,-275,0,275,0.001,0;0.5;0,1,751.4759,1.0,1042.0,-697.0,1,1
447,752.2298,-1709.1967,-956.9669,1709.8803,752.9134,0.3001,753.2135,0.3668,-275,0.0167,275,0.0402,0;0.5;0,1,752.8349,1.0,1038.0,-705.0,1,1
448,753.5804,-1710.5473,-956.9669,1711.3142,754.3473,0.3001,754.6474,0.3668,-275,0.0088,275,0.0098,0;0.5;0,1,754.2604,1.0,1047.0,-692.0,1,1
449,755.0143,-1711.9812,-956.9669,1712.6481,755.6812,0.3001,755.9813,0.3668,275,0.45,-275,0.4582,0;0.5;0,0,755.5943,0.0,-1006.0,-631.0,1,1
450,756.3481,-1713.3150,-956.9669,1714.7823,757.8154,0.3001,758.1155,0.3668,-275,0.0088,275,0.0117,0;0.5;0,1,757.7285,1.0,1036.0,-707.0,1,1
451,758.4823,-1715.4492,-956.9669,1716.7498,759.7829,0.3001,760.0830,0.3668,-275,0.0167,275,0.0402,0;0.5;0,1,759.7042,1.0,1035.0,-708.0,1,1
452,760.4498,-1717.4167,-956.9669,1719.0674,762.1005,0.3001,762.4006,0.3668,-275,0.0088,275,0.0117,0;0.5;0,1,762.0221,1.0,1038.0,-705.0,1,1
453,762.7674,-1719.7343,-956.9669,1720.4012,763.4343,0.3001,763.7344,0.3668,275,0.0088,-275,0.2009,0;0.5;0,0,763.3556,0.0,-1013.0,-637.0,1,1
454,764.1013,-1721.0682,-956.9669,1722.7188,765.7519,0.3001,766.0521,0.3668,-275,0,275,0.0029,0;0.5;0,1,765.6652,1.0,1036.0,-704.0,1,1
455,766.4189,-1723.3858,-956.9669,1723.9360,766.9691,0.3001,767.2692,0.3668,275,0.2,-275,0.2671,1;0;0,0,766.8905,1.0,1042.0,-702.0,1,0
456,767.6360,-1724.6029,-956.9669,1725.1532,768.1862,0.3001,768.4864,0.3668,-275,0.0088,275,0.0759,0;0.5;0,1,768.0995,1.0,1045.0,-699.0,1,1
457,768.8532,-1725.8201,-956.9669,1726.3203,769.3534,0.3001,769.6535,0.3668,275,0.45,-275,0.5171,0;0.5;0,0,769.2748,0.0,-1020.0,-643.0,1,1
458,770.0203,-1726.9872,-956.9669,1728.1210,771.1541,0.3001,771.4542,0.3668,-275,0,275,0.0235,0;0.5;0,1,771.0757,1.0,1036.0,-704.0,1,1
459,771.8210,-1728.7880,-956.9669,1729.3882,772.4213,0.3001,772.7214,0.3668,-275,0.45,275,0.4582,1;0;0,1,772.3345,0.0,-1035.0,-628.0,1,0
460,773.0882,-1730.0551,-956.9669,1731.1222,774.1553,0.3001,774.4554,0.3668,275,0,-275,0.001,1;0;0,0,774.0685,1.0,1026.0,-713.0,1,0
461,774.8223,-1731.7892,-956.9669,1731.9392,774.9723,0.3001,775.2724,0.3668,-275,0.05,275,0.6,0;0.5;0,1,774.8854,1.0,1036.0,-704.0,1,1
462,775.6393,-1732.6062,-956.9669,1733.0230,776.0561,0.3001,776.3562,0.3668,-275,0,275,0.0082,0;0.5;0,1,775.9775,1.0,1038.0,-702.0,1,1
463,776.7230,-1733.6899,-956.9669,1734.0734,777.1065,0.3001,777.4066,0.3668,275,0.0167,-275,0.0838,1;0;0,0,777.0280,1.0,1035.0,-708.0,1,0
464,777.7734,-1734.7404,-956.9669,1735.1405,778.1736,0.3001,778.4737,0.3668,-275,0.2,275,0.2082,0;0.5;0,1,778.0950,1.0,1027.0,-719.0,1,1
465,778.8405,-1735.8074,-956.9669,1736.0075,779.0406,0.3001,779.3407,0.0000,275,0.05,-275,0.2421,0;0.5;0,0,778.9536,0.0,-1028.0,-623.0,1,1
466,779.3407,-1736.3077,-956.9669,1736.7245,779.7576,0.3001,780.0577,0.3668,-275,0.0167,275,0.0177,0;0.5;0,1,779.6789,1.0,1025.0,-718.0,1,1
467,780.4245,-1737.3914,-956.9669,1737.7416,780.7747,0.3001,781.0748,0.3668,-275,0.0167,275,0.0402,0;0.5;0,1,780.6961,1.0,1033.0,-711.0,1,1
468,781.4416,-1738.4085,-956.9669,1738.8920,781.9251,0.3001,782.2252,0.3668,-275,0.2,275,1,0;0.5;0,1,781.8466,1.0,1029.0,-713.0,1,1
469,782.5921,-1739.5590,-956.9669,1739.8591,782.8922,0.3001,783.1923,0.3668,275,0,-275,0.0082,1;0;0,0,782.8052,1.0,1028.0,-711.0,1,0
470,783.5591,-1740.5260,-956.9669,1741.3097,784.3428,0.3001,784.6429,0.3668,-275,0.05,275,0.0735,0;0.5;0,1,784.2643,1.0,1026.0,-714.0,1,1
471,785.0097,-1741.9766,-956.9669,1742.0933,785.1264,0.3001,785.4265,0.3668,275,0.05,-275,0.2421,1;0;0,0,785.0395,1.0,1028.0,-714.0,1,0
472,785.7934,-1742.7603,-956.9669,1743.1437,786.1768,0.3001,786.4770,0.3668,275,0.0167,-275,0.0177,0;0.5;0,0,786.0982,0.0,-1029.0,-616.0,1,1
473,786.8438,-1743.8107,-956.9669,1744.6777,787.7108,0.3001,788.0109,0.3668,-275,0,275,0.001,0;0.5;0,1,787.6239,1.0,1039.0,-703.0,1,1
474,788.3777,-1745.3446,-956.9669,1746.8452,789.8783,0.3001,790.1785,0.3668,-275,0.05,275,0.0735,1;0;0,1,789.7914,0.0,-1028.0,-613.0,1,0
475,790.5453,-1747.5122,-956.9669,1748.1124,791.1455,0.3001,791.4456,0.3668,-275,0.2,275,0.3921,0;0.5;0,1,791.0586,1.0,1037.0,-705.0,1,1
476,791.8124,-1748.7794,-956.9669,1749.0128,792.0459,0.3001,792.3460,0.3668,-275,0.0167,275,0.0196,0;0.5;0,1,791.9674,1.0,1028.0,-715.0,1,1
477,792.7128,-1749.6797,-956.9669,1750.1799,793.2130,0.3001,793.5131,0.3668,-275,0.0088,275,0.0323,0;0.5;0,1,793.1345,1.0,1028.0,-712.0,1,1
478,793.8799,-1750.8469,-956.9669,1751.4971,794.5302,0.3001,794.8303,0.3668,-275,0.0088,275,0.0759,0;0.5;0,1,794.4515,1.0,1033.0,-705.0,1,1
479,795.1971,-1752.1640,-956.9669,1752.6142,795.6473,0.3001,795.9474,0.3668,-275,0,275,0.1921,0;0.5;0,1,795.5603,1.0,1033.0,-708.0,1,1
480,796.3143,-1753.2812,-956.9669,1753.9314,796.9645,0.3001,797.2646,0.3668,-275,0.05,275,0.0735,1;0;0,1,796.8859,0.0,-1022.0,-629.0,1,0
481,797.6315,-1754.5984,-956.9669,1754.8151,797.8482,0.3001,798.1483,0.3668,-275,0.45,275,0.4735,0;0.5;0,1,797.7697,1.0,1033.0,-709.0,1,1
482,798.5151,-1755.4821,-956.9669,1756.2324,799.2655,0.3001,799.5656,0.3668,-275,0.05,275,0.1171,0;0.5;0,1,799.1869,1.0,1037.0,-705.0,1,1
483,799.9324,-1756.8993,-956.9669,1757.8330,800.8661,0.3001,801.1662,0.3668,275,0.0088,-275,0.0117,1;0;0,0,800.7875,1.0,1035.0,-709.0,1,0
484,801.5330,-1758.4999,-956.9669,1759.1669,802.2000,0.3001,802.5001,0.3668,-275,0.05,275,0.0529,1;0;0,1,802.1131,0.0,-1020.0,-623.0,1,0
485,802.8669,-1759.8338,-956.9669,1760.4674,803.5005,0.3001,803.8006,0.3668,275,0.2,-275,1,0;0.5;0,0,803.4135,0.0,-1010.0,-619.0,1,1
486,804.1674,-1761.1343,-956.9669,1761.2510,804.2841,0.3001,804.5843,0.3668,275,0.45,-275,0.4582,1;0;0,0,804.2056,1.0,1036.0,-709.0,1,0
487,804.9511,-1761.9180,-956.9669,1762.8350,805.8681,0.3001,806.1682,0.3668,275,0.2,-275,1,1;0;0,0,805.7812,1.0,1032.0,-714.0,1,0
488,806.5351,-1763.5020,-956.9669,1766.8700,809.9031,0.3001,810.2032,0.3668,275,0.0088,-275,0.0098,1;0;0,0,809.8244,1.0,1043.0,-706.0,1,0
489,810.5700,-1767.5369,-956.9669,1768.3372,811.3703,0.3001,811.6705,0.3668,-275,0.05,275,0.0735,1;0;0,1,811.2919,0.0,-1005.0,-627.0,1,0
490,812.0373,-1769.0042,-956.9669,1769.5377,812.5708,0.3001,812.8709,0.3668,-275,0.2,275,0.2235,1;0;0,1,812.4839,0.0,-1013.0,-622.0,1,0
491,813.2378,-1770.2047,-956.9669,1770.3380,813.3711,0.3001,813.6713,0.3668,-275,0.2,275,0.2235,0;0.5;0,1,813.2927,1.0,1039.0,-708.0,1,1
492,814.0381,-1771.0050,-956.9669,1771.0883,814.1214,0.3001,814.4216,0.3668,275,0,-275,0.0029,0;0.5;0,0,814.0429,0.0,-1014.0,-621.0,1,1
493,814.7884,-1771.7553,-956.9669,1772.6056,815.6387,0.3001,815.9388,0.3668,275,0.0088,-275,0.0323,1;0;0,0,815.5518,1.0,1018.0,-719.0,1,0
494,816.3057,-1773.2726,-956.9669,1773.7394,816.7725,0.3001,817.0726,0.3668,-275,0.0167,275,0.0196,0;0.5;0,1,816.6941,1.0,1033.0,-709.0,1,1
495,817.4394,-1774.4064,-956.9669,1774.8565,817.8896,0.3001,818.1898,0.3668,275,0,-275,0.0235,1;0;0,0,817.8029,1.0,1036.0,-702.0,1,0
496,818.5566,-1775.5235,-956.9669,1776.1737,819.2068,0.3001,819.5070,0.3668,-275,0.0088,275,0.2009,0;0.5;0,1,819.1199,1.0,1037.0,-703.0,1,1
497,819.8738,-1776.8407,-956.9669,1777.7577,820.7908,0.3001,821.0909,0.3668,-275,0.2,275,0.2671,1;0;0,1,820.7122,0.0,-979.0,-621.0,1,0
498,821.4577,-1778.4246,-956.9669,1780.6922,823.7253,0.3001,824.0254,0.3668,275,0,-275,0.0029,1;0;0,0,823.6466,1.0,1054.0,-684.0,1,0
499,824.3923,-1781.3592,-956.9669,1781.8594,824.8925,0.3001,825.1926,0.3668,-275,0,275,0.0082,0;0.5;0,1,824.8139,1.0,1038.0,-700.0,1,1
500,825.5594,-1782.5263,-956.9669,1783.3933,826.4264,0.3001,826.7265,0.3668,275,0.0167,-275,0.0249,1;0;0,0,826.3396,1.0,1046.0,-693.0,1,0
501,827.0933,-1784.0602,-956.9669,1784.5271,827.5602,0.3001,827.8603,0.3668,-275,0,275,0.0082,0;0.5;0,1,827.4734,1.0,1046.0,-695.0,1,1
502,828.2271,-1785.1940,-956.9669,1785.8610,828.8941,0.3001,829.1942,0.3668,-275,0.0088,275,0.017,0;0.5;0,1,828.8154,1.0,1049.0,-695.0,1,1
503,829.5610,-1786.5279,-956.9669,1787.1448,830.1779,0.3001,830.4780,0.3668,275,0.05,-275,0.6,0;0.5;0,0,830.0994,0.0,-1007.0,-614.0,1,1
504,830.8449,-1787.8118,-956.9669,1789.4791,832.5122,0.3001,832.8123,0.3668,275,0.05,-275,0.0735,1;0;0,0,832.4253,1.0,1051.0,-696.0,1,0
505,833.1791,-1790.1460,-956.9669,1791.1464,834.1795,0.3001,834.4797,0.3668,275,0.0167,-275,0.0177,1;0;0,0,834.1010,1.0,1052.0,-695.0,1,0
506,834.8465,-1791.8134,-956.9669,1792.4136,835.4467,0.3001,835.7468,0.3668,-275,0.0167,275,0.0402,0;0.5;0,1,835.3681,1.0,1052.0,-695.0,1,1
507,836.1136,-1793.0806,-956.9669,1793.6141,836.6472,0.3001,836.9473,0.3668,275,0,-275,0.001,1;0;0,0,836.5686,1.0,1052.0,-696.0,1,0
508,837.3141,-1794.2810,-956.9669,1795.0814,838.1145,0.3001,838.4146,0.3668,275,0.0167,-275,0.0402,0;0.5;0,0,838.0278,0.0,-984.0,-610.0,1,1
509,838.7814,-1795.7483,-956.9669,1796.7320,839.7651,0.3001,840.0652,0.3668,275,0.05,-275,0.0529,0;0.5;0,0,839.6782,0.0,-994.0,-625.0,1,1
510,840.4321,-1797.3990,-956.9669,1798.2326,841.2657,0.3001,841.5658,0.3668,275,0.0167,-275,0.0196,1;0;0,0,841.1789,1.0,1054.0,-688.0,1,0
511,841.9327,-1798.8996,-956.9669,1800.1501,843.1832,0.3001,843.4833,0.3668,-275,0,275,0.0671,0;0.5;0,1,843.0963,1.0,1056.0,-687.0,1,1
512,843.8501,-1800.8170,-956.9669,1801.4339,844.4670,0.3001,844.7671,0.3668,-275,0.45,275,0.4735,1;0;0,1,844.3800,0.0,-992.0,-623.0,1,0
513,845.1340,-1802.1009,-956.9669,1803.0012,846.0343,0.3001,846.3344,0.3668,275,0.0088,-275,0.017,1;0;0,0,845.9558,1.0,1044.0,-699.0,1,0
514,846.7012,-1803.6682,-956.9669,1804.2017,847.2348,0.3001,847.5349,0.3668,275,0.0167,-275,0.0177,1;0;0,0,847.1562,1.0,1046.0,-699.0,1,0
515,847.9017,-1804.8686,-956.9669,1805.2855,848.3186,0.3001,848.6187,0.3668,-275,0,275,0.1921,0;0.5;0,1,848.2399,1.0,1048.0,-699.0,1,1
516,848.9855,-1805.9524,-956.9669,1806.1692,849.2023,0.3001,849.5024,0.3668,-275,0.05,275,0.0529,0;0.5;0,1,849.1237,1.0,1047.0,-698.0,1,1
517,849.8692,-1806.8361,-956.9669,1808.1033,851.1364,0.3001,851.4365,0.3668,-275,0.2,275,0.2235,0;0.5;0,1,851.0579,1.0,1048.0,-699.0,1,1
518,851.8033,-1808.7702,-956.9669,1809.1204,852.1534,0.3001,852.4536,0.3668,275,0.0088,-275,0.017,1;0;0,0,852.0666,1.0,1042.0,-702.0,1,0
519,852.8204,-1809.7873,-956.9669,1810.6376,853.6707,0.3001,853.9708,0.3668,-275,0.05,275,0.0582,0;0.5;0,1,853.5922,1.0,1046.0,-700.0,1,1
520,854.3377,-1811.3046,-956.9669,1811.8881,854.9212,0.3001,855.2214,0.3668,-275,0.0167,275,0.0196,0;0.5;0,1,854.8344,1.0,1046.0,-700.0,1,1
521,855.5882,-1812.5551,-956.9669,1813.0886,856.1217,0.3001,856.4218,0.3668,275,0.2,-275,0.3921,0;0.5;0,0,856.0431,0.0,-995.0,-637.0,1,1
522,856.7886,-1813.7556,-956.9669,1814.4892,857.5223,0.3001,857.8224,0.3668,-275,0.2,275,0.75,0;0.5;0,1,857.4354,1.0,1034.0,-704.0,1,1
523,858.1892,-1815.1561,-956.9669,1815.3562,858.3893,0.3001,858.6894,0.3668,275,0.0088,-275,0.2009,1;0;0,0,858.3106,1.0,1039.0,-704.0,1,0
524,859.0562,-1816.0231,-956.9669,1816.8568,859.8899,0.3001,860.1900,0.3668,275,0.2,-275,0.2671,0;0.5;0,0,859.8114,0.0,-999.0,-634.0,1,1
525,860.5568,-1817.5237,-956.9669,1818.2907,861.3238,0.3001,861.6239,0.3668,275,0,-275,0.0029,1;0;0,0,861.2452,1.0,1023.0,-709.0,1,0
526,861.9907,-1818.9577,-956.9669,1820.1415,863.1746,0.3001,863.4747,0.3668,-275,0.0167,275,0.0838,0;0.5;0,1,863.0875,1.0,1028.0,-700.0,1,1
527,863.8415,-1820.8084,-956.9669,1821.7421,864.7752,0.3001,865.0753,0.3668,-275,0.45,275,0.6421,0;0.5;0,1,864.6966,1.0,1031.0,-699.0,1,1
528,865.4421,-1822.4090,-956.9669,1822.5758,865.6089,0.3001,865.9090,0.3668,-275,0.45,275,0.4582,0;0.5;0,1,865.5303,1.0,1025.0,-709.0,1,1
529,866.2758,-1823.2427,-956.9669,1824.8600,867.8931,0.3001,868.1932,0.3668,275,0.05,-275,0.0529,1;0;0,0,867.8063,1.0,1015.0,-715.0,1,0
530,868.5601,-1825.5270,-956.9669,1826.1939,869.2270,0.3001,869.5271,0.3668,275,0.0167,-275,0.2088,0;0.5;0,0,869.1401,0.0,-1020.0,-632.0,1,1
531,869.8939,-1826.8608,-956.9669,1827.8112,870.8443,0.3001,871.1444,0.3668,-275,0.0088,275,0.0759,0;0.5;0,1,870.7574,1.0,1020.0,-705.0,1,1
532,871.5113,-1828.4782,-956.9669,1829.1784,872.2115,0.3001,872.5117,0.3668,-275,0.2,275,0.2671,0;0.5;0,1,872.1247,1.0,1027.0,-704.0,1,1
533,872.8785,-1829.8454,-956.9669,1830.1121,873.1452,0.3001,873.4454,0.3668,-275,0.05,275,0.1171,0;0.5;0,1,873.0585,1.0,1025.0,-705.0,1,1
534,873.8122,-1830.7791,-956.9669,1831.1792,874.2123,0.3001,874.5125,0.3668,-275,0.0088,275,0.0117,0;0.5;0,1,874.1339,1.0,1028.0,-702.0,1,1
535,874.8793,-1831.8462,-956.9669,1832.2797,875.3128,0.3001,875.6129,0.0000,-275,0.45,275,1,0;0.5;0,1,875.2257,1.0,1032.0,-698.0,1,1
536,875.6129,-1832.5798,-956.9669,1832.9966,876.0297,0.3001,876.3299,0.3668,-275,0,275,0.0029,0;0.5;0,1,875.9428,1.0,1022.0,-707.0,1,1
537,876.6967,-1833.6636,-956.9669,1833.9970,877.0301,0.3001,877.3303,0.3668,-275,0.45,275,0.5171,0;0.5;0,1,876.9517,1.0,1026.0,-704.0,1,1
538,877.6971,-1834.6640,-956.9669,1835.2476,878.2806,0.3001,878.5808,0.3668,-275,0.0167,275,0.0177,0;0.5;0,1,878.2023,1.0,1026.0,-705.0,1,1
539,878.9476,-1835.9145,-956.9669,1836.3313,879.3644,0.3001,879.6645,0.3668,-275,0.05,275,0.2421,0;0.5;0,1,879.2774,1.0,1028.0,-702.0,1,1
540,880.0314,-1836.9983,-956.9669,1837.1983,880.2314,0.3001,880.5316,0.3668,-275,0.05,275,0.0582,0;0.5;0,1,880.1446,1.0,1025.0,-706.0,1,1
541,880.8984,-1837.8653,-956.9669,1838.5989,881.6320,0.3001,881.9321,0.3668,-275,0,275,0.0082,0;0.5;0,1,881.5452,1.0,1028.0,-704.0,1,1
542,882.2989,-1839.2658,-956.9669,1839.6493,882.6824,0.3001,882.9825,0.3668,275,0.0088,-275,0.0098,1;0;0,0,882.5956,1.0,1025.0,-704.0,1,0
543,883.3494,-1840.3163,-956.9669,1840.8998,883.9329,0.3001,884.2330,0.3668,-275,0.05,275,0.6,0;0.5;0,1,883.8462,1.0,1028.0,-697.0,1,1
544,884.5999,-1841.5668,-956.9669,1842.1170,885.1501,0.3001,885.4502,0.3668,275,0.2,-275,0.2235,1;0;0,0,885.0633,1.0,1028.0,-696.0,1,0
545,885.8170,-1842.7839,-956.9669,1843.4008,886.4339,0.3001,886.7341,0.3668,275,0,-275,0.001,1;0;0,0,886.3555,1.0,1023.0,-702.0,1,0
546,887.1009,-1844.0678,-956.9669,1844.3179,887.3510,0.3001,887.6511,0.3668,275,0,-275,0.1921,1;0;0,0,887.2641,1.0,1025.0,-697.0,1,0
547,888.0179,-1844.9848,-956.9669,1845.7685,888.8016,0.3001,889.1017,0.3668,275,0.45,-275,1,0;0.5;0,0,888.7231,0.0,-1025.0,-629.0,1,1
548,889.4685,-1846.4354,-956.9669,1846.7689,889.8020,0.3001,890.1021,0.3668,-275,0.0167,275,0.0196,0;0.5;0,1,889.7151,1.0,1018.0,-709.0,1,1
549,890.4689,-1847.4358,-956.9669,1847.8526,890.8857,0.3001,891.1858,0.3668,275,0.05,-275,0.6,0;0.5;0,0,890.7989,0.0,-1027.0,-630.0,1,1
550,891.5527,-1848.5196,-956.9669,1849.3199,892.3530,0.3001,892.6531,0.3668,-275,0.45,275,0.5171,0;0.5;0,1,892.2743,1.0,1031.0,-696.0,1,1
551,893.0199,-1849.9868,-956.9669,1850.6871,893.7202,0.3001,894.0203,0.3668,275,0.05,-275,0.1171,1;0;0,0,893.6334,1.0,1026.0,-704.0,1,0
552,894.3871,-1851.3540,-956.9669,1851.8209,894.8540,0.3001,895.1541,0.3668,275,0,-275,0.001,0;0.5;0,0,894.7670,0.0,-1023.0,-624.0,1,1
553,895.5209,-1852.4878,-956.9669,1853.1881,896.2212,0.3001,896.5213,0.3668,275,0.2,-275,0.75,0;0.5;0,0,896.1426,0.0,-1016.0,-628.0,1,1
554,896.8881,-1853.8551,-956.9669,1854.8054,897.8385,0.3001,898.1387,0.3668,-275,0.0167,275,0.0177,0;0.5;0,1,897.7517,1.0,1032.0,-692.0,1,1
555,898.5055,-1855.4724,-956.9669,1855.9226,898.9556,0.3001,899.2558,0.3668,-275,0.0088,275,0.0117,0;0.5;0,1,898.8689,1.0,1036.0,-689.0,1,1
556,899.6226,-1856.5895,-956.9669,1857.1230,900.1561,0.3001,900.4563,0.3668,275,0.45,-275,0.5171,0;0.5;0,0,900.0693,0.0,-1013.0,-626.0,1,1
557,900.8231,-1857.7900,-956.9669,1858.5403,901.5734,0.3001,901.8735,0.3668,-275,0.0167,275,0.0838,0;0.5;0,1,901.4864,1.0,1034.0,-691.0,1,1
558,902.2403,-1859.2072,-956.9669,1859.9242,902.9573,0.3001,903.2574,0.3668,-275,0.0167,275,0.2088,0;0.5;0,1,902.8787,1.0,1033.0,-689.0,1,1
559,903.6242,-1860.5911,-956.9669,1860.9913,904.0244,0.3001,904.3245,0.3668,-275,0,275,0.0029,0;0.5;0,1,903.9459,1.0,1031.0,-695.0,1,1
560,904.6913,-1861.6582,-956.9669,1862.2084,905.2415,0.3001,905.5416,0.3668,275,0.0088,-275,0.2009,0;0.5;0,0,905.1629,0.0,-1024.0,-628.0,1,1