trial,presentation_startTime,presentation_duration,prefeedback_startTime,prefeedback_duration,feedback_startTime,feedback_duration,fixation_startTime,fixation_duration,presentation_object1_positionX,presentation_object1_contrastValue,presentation_object2_positionX,presentation_object2_contrastValue,feedback_object1_color,trialValue,presentation_responseTime,presentation_response,presentation_touchPositionX,presentation_touchPositionY,respondedInTime,correct
1,47.2857,-10429.3555,-10382.0698,10429.8891,47.8192,0.3001,48.1194,0.3668,275,0,-275,0.1921,0;0.5;0,0,47.7323,0.0,-831.0,-603.0,1,1
2,48.4862,-10430.5560,-10382.0698,10431.0437,48.9739,0.3001,49.2740,0.3668,275,0.0167,-275,0.2088,0;0.5;0,0,48.8827,0.0,-815.0,-632.0,1,1
3,49.6408,-10431.7107,-10382.0698,10432.2734,50.2035,0.3001,50.5037,0.3668,-275,0.0088,275,0.017,0;0.5;0,1,50.1167,1.0,822.0,-594.0,1,1
4,50.8705,-10432.9403,-10382.0698,10433.4238,51.3540,0.3001,51.6541,0.3668,275,0.45,-275,0.6421,0;0.5;0,0,51.2671,0.0,-823.0,-624.0,1,1
5,52.0209,-10434.0908,-10382.0698,10434.5910,52.5211,0.3001,52.8213,0.3668,-275,0,275,0.0235,0;0.5;0,1,52.4260,1.0,811.0,-615.0,1,1
6,53.1881,-10435.2579,-10382.0698,10435.7248,53.6549,0.3001,53.9550,0.3668,275,0,-275,0.0082,0;0.5;0,0,53.5681,0.0,-824.0,-639.0,1,1
7,54.3219,-10436.3917,-10382.0698,10436.7418,54.6720,0.3001,54.9721,0.3668,-275,0,275,0.0671,0;0.5;0,1,54.5850,1.0,812.0,-611.0,1,1
8,55.3389,-10437.4088,-10382.0698,10437.9423,55.8725,0.3001,56.1726,0.3668,275,0.45,-275,0.5171,0;0.5;0,0,55.7773,0.0,-816.0,-633.0,1,1
9,56.5394,-10438.6093,-10382.0698,10439.1595,57.0896,0.3001,57.3898,0.3668,275,0.2,-275,0.2082,1;0;0,0,57.0027,1.0,812.0,-608.0,1,0
10,57.7566,-10439.8264,-10382.0698,10440.5100,58.4402,0.3001,58.7403,0.3668,275,0.05,-275,0.0735,0;0.5;0,0,58.3450,0.0,-814.0,-652.0,1,1
11,59.1071,-10441.1770,-10382.0698,10441.9273,59.8574,0.3001,60.1575,0.3668,275,0.05,-275,0.0529,0;0.5;0,0,59.7705,0.0,-813.0,-654.0,1,1
12,60.5244,-10442.5942,-10382.0698,10443.2111,61.1413,0.3001,61.4414,0.3668,-275,0.05,275,0.0582,0;0.5;0,1,61.0545,1.0,805.0,-621.0,1,1
13,61.8082,-10443.8781,-10382.0698,10444.3449,62.2751,0.3001,62.5752,0.3668,275,0.45,-275,0.5171,0;0.5;0,0,62.1883,0.0,-812.0,-648.0,1,1
14,62.9420,-10445.0118,-10382.0698,10445.7955,63.7256,0.3001,64.0258,0.3668,-275,0,275,0.0082,0;0.5;0,1,63.6304,1.0,801.0,-619.0,1,1
15,64.3926,-10446.4624,-10382.0698,10447.0460,64.9761,0.3001,65.2763,0.3668,-275,0.05,275,0.0735,0;0.5;0,1,64.8892,1.0,797.0,-622.0,1,1
16,65.6431,-10447.7129,-10382.0698,10448.1464,66.0766,0.3001,66.3767,0.3668,-275,0.05,275,0.2421,0;0.5;0,1,65.9813,1.0,802.0,-620.0,1,1
17,66.7435,-10448.8134,-10382.0698,10449.1969,67.1270,0.3001,67.4271,0.3668,-275,0,275,0.1921,0;0.5;0,1,67.0403,1.0,801.0,-625.0,1,1
18,67.7939,-10449.8638,-10382.0698,10450.5141,68.4442,0.3001,68.7443,0.3668,275,0.05,-275,0.0582,0;0.5;0,0,68.3574,0.0,-805.0,-651.0,1,1
19,69.1111,-10451.1810,-10382.0698,10451.7812,69.7114,0.3001,70.0115,0.3668,275,0.0088,-275,0.2009,0;0.5;0,0,69.6161,0.0,-803.0,-649.0,1,1
20,70.3783,-10452.4482,-10382.0698,10453.2151,71.1453,0.3001,71.4454,0.3668,275,0.0167,-275,0.0249,1;0;0,0,71.0584,1.0,788.0,-619.0,1,0
21,71.8122,-10453.8821,-10382.0698,10454.5157,72.4458,0.3001,72.7459,0.3668,-275,0.2,275,0.2235,0;0.5;0,1,72.3506,1.0,774.0,-620.0,1,1
22,73.1128,-10455.1826,-10382.0698,10455.6328,73.5629,0.3001,73.8631,0.3668,-275,0.2,275,0.3921,0;0.5;0,1,73.4762,1.0,778.0,-614.0,1,1
23,74.2299,-10456.2997,-10382.0698,10457.1000,75.0302,0.3001,75.3303,0.3668,275,0.45,-275,0.4735,1;0;0,0,74.9433,1.0,777.0,-618.0,1,0
24,75.6971,-10457.7670,-10382.0698,10458.1671,76.0973,0.3001,76.3974,0.3668,275,0,-275,0.1921,0;0.5;0,0,76.0021,0.0,-808.0,-643.0,1,1
25,76.7642,-10458.8341,-10382.0698,10459.3843,77.3144,0.3001,77.6146,0.3668,275,0.2,-275,0.2671,0;0.5;0,0,77.2191,0.0,-804.0,-647.0,1,1
26,77.9814,-10460.0512,-10382.0698,10460.6515,78.5816,0.3001,78.8817,0.3668,-275,0.0167,275,0.0249,0;0.5;0,1,78.4947,1.0,788.0,-607.0,1,1
27,79.2486,-10461.3184,-10382.0698,10461.8186,79.7488,0.3001,80.0489,0.3668,-275,0.45,275,0.5171,0;0.5;0,1,79.6619,1.0,791.0,-608.0,1,1
28,80.4157,-10462.4855,-10382.0698,10463.3692,81.2994,0.3001,81.5995,0.3668,-275,0.0167,275,0.0177,1;0;0,1,81.2042,0.0,-801.0,-649.0,1,0
29,81.9663,-10464.0362,-10382.0698,10464.5530,82.4832,0.3001,82.7833,0.3668,-275,0.05,275,0.2421,0;0.5;0,1,82.3879,1.0,792.0,-604.0,1,1
30,83.1501,-10465.2200,-10382.0698,10465.6535,83.5836,0.3001,83.8838,0.3668,275,0.0088,-275,0.0759,0;0.5;0,0,83.4885,0.0,-799.0,-652.0,1,1
31,84.2506,-10466.3204,-10382.0698,10467.6543,85.5844,0.3001,85.8846,0.3668,275,0.2,-275,0.2082,0;0.5;0,0,85.4893,0.0,-801.0,-642.0,1,1
32,86.2514,-10468.3212,-10382.0698,10469.2049,87.1351,0.3001,87.4352,0.3668,-275,0.05,275,0.0735,0;0.5;0,1,87.0399,1.0,783.0,-621.0,1,1
33,87.8020,-10469.8718,-10382.0698,10470.5221,88.4523,0.3001,88.7524,0.3668,275,0.0088,-275,0.0323,0;0.5;0,0,88.3570,0.0,-805.0,-649.0,1,1
34,89.1192,-10471.1890,-10382.0698,10471.7393,89.6694,0.3001,89.9695,0.3668,-275,0.05,275,0.6,0;0.5;0,1,89.5741,1.0,788.0,-607.0,1,1
35,90.3364,-10472.4062,-10382.0698,10472.8897,90.8199,0.3001,91.1200,0.3668,275,0.2,-275,0.75,0;0.5;0,0,90.7330,0.0,-804.0,-645.0,1,1
36,91.4868,-10473.5567,-10382.0698,10474.3070,92.2371,0.3001,92.5372,0.3668,275,0.0088,-275,0.017,0;0.5;0,0,92.1503,0.0,-795.0,-642.0,1,1
37,92.9041,-10474.9739,-10382.0698,10475.7909,93.7211,0.3001,94.0212,0.3668,-275,0.2,275,0.2671,0;0.5;0,1,93.6259,1.0,781.0,-623.0,1,1
38,94.3880,-10476.4578,-10382.0698,10477.0914,95.0216,0.3001,95.3217,0.3668,-275,0.2,275,1,0;0.5;0,1,94.9264,1.0,783.0,-619.0,1,1
39,95.6885,-10477.7584,-10382.0698,10478.5253,96.4555,0.3001,96.7556,0.3668,275,0.05,-275,0.6,0;0.5;0,0,96.3684,0.0,-803.0,-645.0,1,1
40,97.1224,-10479.1923,-10382.0698,10480.3261,98.2562,0.3001,98.5563,0.3668,-275,0.0088,275,0.0098,1;0;0,1,98.1611,0.0,-803.0,-640.0,1,0
41,98.9231,-10480.9930,-10382.0698,10481.6266,99.5567,0.3001,99.8569,0.3668,275,0.2,-275,1,0;0.5;0,0,99.4615,0.0,-800.0,-640.0,1,1
42,100.2237,-10482.2935,-10382.0698,10482.9438,100.8739,0.3001,101.1740,0.3668,-275,0,275,0.1921,0;0.5;0,1,100.7787,1.0,787.0,-611.0,1,1
43,101.5409,-10483.6107,-10382.0698,10484.2943,102.2245,0.3001,102.5246,0.3668,-275,0,275,0.0235,0;0.5;0,1,102.1292,1.0,786.0,-618.0,1,1
44,102.8914,-10484.9613,-10382.0698,10485.4781,103.4083,0.3001,103.7084,0.3668,-275,0.0088,275,0.2009,0;0.5;0,1,103.3214,1.0,784.0,-620.0,1,1
45,104.0752,-10486.1451,-10382.0698,10486.8620,104.7922,0.3001,105.0923,0.3668,-275,0.0167,275,0.2088,0;0.5;0,1,104.6970,1.0,784.0,-618.0,1,1
46,105.4591,-10487.5290,-10382.0698,10488.0625,105.9927,0.3001,106.2928,0.3668,275,0.05,-275,0.6,0;0.5;0,0,105.9057,0.0,-798.0,-637.0,1,1
47,106.6596,-10488.7294,-10382.0698,10489.6965,107.6266,0.3001,107.9268,0.3668,275,0.05,-275,0.0735,0;0.5;0,0,107.5314,0.0,-805.0,-641.0,1,1
48,108.2936,-10490.3634,-10382.0698,10491.0804,109.0105,0.3001,109.3107,0.3668,-275,0.0167,275,0.0177,1;0;0,1,108.9153,0.0,-807.0,-640.0,1,0
49,109.6775,-10491.7473,-10382.0698,10492.2809,110.2110,0.3001,110.5111,0.3668,-275,0.0088,275,0.2009,0;0.5;0,1,110.1242,1.0,782.0,-618.0,1,1
50,110.8780,-10492.9478,-10382.0698,10493.4480,111.3782,0.3001,111.6783,0.3668,275,0.0088,-275,0.0759,0;0.5;0,0,111.2828,0.0,-803.0,-641.0,1,1
51,112.0451,-10494.1149,-10382.0698,10494.7152,112.6453,0.3001,112.9455,0.3668,-275,0.45,275,0.6421,0;0.5;0,1,112.5586,1.0,778.0,-611.0,1,1
52,113.3123,-10495.3821,-10382.0698,10496.7827,114.7128,0.3001,115.0130,0.3668,-275,0.45,275,0.4735,0;0.5;0,1,114.6260,1.0,774.0,-620.0,1,1
53,115.3798,-10497.4496,-10382.0698,10498.0665,115.9967,0.3001,116.2968,0.3668,275,0.2,-275,0.75,0;0.5;0,0,115.9013,0.0,-802.0,-636.0,1,1
54,116.6636,-10498.7335,-10382.0698,10499.4504,117.3806,0.3001,117.6807,0.3668,-275,0.45,275,0.6421,0;0.5;0,1,117.2854,1.0,784.0,-609.0,1,1
55,118.0475,-10500.1173,-10382.0698,10501.0344,118.9645,0.3001,119.2647,0.3668,275,0,-275,0.0082,0;0.5;0,0,118.8776,0.0,-804.0,-640.0,1,1
56,119.6315,-10501.7013,-10382.0698,10502.3849,120.3151,0.3001,120.6152,0.3668,-275,0,275,0.0082,0;0.5;0,1,120.2198,1.0,783.0,-606.0,1,1
57,120.9820,-10503.0519,-10382.0698,10503.8355,121.7657,0.3001,122.0658,0.3668,275,0.45,-275,0.4582,1;0;0,0,121.6787,1.0,781.0,-609.0,1,0
58,122.4326,-10504.5024,-10382.0698,10505.0527,122.9828,0.3001,123.2829,0.3668,275,0.45,-275,0.4735,0;0.5;0,0,122.8960,0.0,-803.0,-647.0,1,1
59,123.6498,-10505.7196,-10382.0698,10506.7367,124.6668,0.3001,124.9670,0.3668,-275,0,275,0.0029,1;0;0,1,124.5799,0.0,-802.0,-644.0,1,0
60,125.3338,-10507.4036,-10382.0698,10508.0539,125.9840,0.3001,126.2842,0.3668,275,0.2,-275,1,0;0.5;0,0,125.8971,0.0,-798.0,-642.0,1,1
61,126.6510,-10508.7208,-10382.0698,10509.4878,127.4179,0.3001,127.7181,0.3668,275,0.0167,-275,0.0838,0;0.5;0,0,127.3227,0.0,-800.0,-643.0,1,1
62,128.0849,-10510.1547,-10382.0698,10510.6382,128.5684,0.3001,128.8685,0.3668,275,0,-275,0.001,1;0;0,0,128.4814,1.0,788.0,-607.0,1,0
63,129.2353,-10511.3052,-10382.0698,10511.9721,129.9023,0.3001,130.2024,0.3668,275,0.0088,-275,0.0759,0;0.5;0,0,129.8071,0.0,-798.0,-645.0,1,1
64,130.5692,-10512.6391,-10382.0698,10513.2560,131.1861,0.3001,131.4862,0.3668,275,0.0088,-275,0.017,1;0;0,0,131.0908,1.0,791.0,-595.0,1,0
65,131.8531,-10513.9229,-10382.0698,10514.7732,132.7034,0.3001,133.0035,0.3668,-275,0.0167,275,0.0249,1;0;0,1,132.6165,0.0,-774.0,-623.0,1,0
66,133.3703,-10515.4402,-10382.0698,10516.2572,134.1873,0.3001,134.4875,0.3668,-275,0.0088,275,0.0098,0;0.5;0,1,134.0922,1.0,790.0,-589.0,1,1
67,134.8543,-10516.9241,-10382.0698,10517.8745,135.8046,0.3001,136.1048,0.3668,275,0.0167,-275,0.0196,1;0;0,0,135.7094,1.0,793.0,-590.0,1,0
68,136.4716,-10518.5414,-10382.0698,10519.0416,136.9718,0.3001,137.2719,0.3668,275,0.05,-275,0.2421,0;0.5;0,0,136.8849,0.0,-777.0,-626.0,1,1
69,137.6387,-10519.7086,-10382.0698,10520.1921,138.1222,0.3001,138.4224,0.3668,-275,0.05,275,0.2421,0;0.5;0,1,138.0354,1.0,792.0,-592.0,1,1
70,138.7892,-10520.8590,-10382.0698,10521.4259,139.3561,0.3001,139.6562,0.3668,275,0.45,-275,0.4582,1;0;0,0,139.2692,1.0,790.0,-596.0,1,0
71,140.0230,-10522.0929,-10382.0698,10523.4434,141.3736,0.3001,141.6737,0.3668,275,0.05,-275,0.0529,0;0.5;0,0,141.2867,0.0,-782.0,-637.0,1,1
72,142.0405,-10524.1103,-10382.0698,10524.7606,142.6908,0.3001,142.9909,0.3668,-275,0.2,275,0.2235,0;0.5;0,1,142.5956,1.0,788.0,-602.0,1,1
73,143.3577,-10525.4275,-10382.0698,10526.7781,144.7082,0.3001,145.0084,0.3668,275,0.05,-275,0.0582,1;0;0,0,144.6131,1.0,784.0,-604.0,1,0
74,145.3752,-10527.4450,-10382.0698,10528.2620,146.1922,0.3001,146.4923,0.3668,-275,0.2,275,0.2082,0;0.5;0,1,146.0971,1.0,787.0,-607.0,1,1
75,146.8591,-10528.9289,-10382.0698,10529.6959,147.6261,0.3001,147.9262,0.3668,275,0.0088,-275,0.0098,0;0.5;0,0,147.5308,0.0,-781.0,-636.0,1,1
76,148.2930,-10530.3628,-10382.0698,10530.9798,148.9099,0.3001,149.2100,0.3668,-275,0.0088,275,0.0323,0;0.5;0,1,148.8229,1.0,788.0,-604.0,1,1
77,149.5769,-10531.6467,-10382.0698,10532.3970,150.3272,0.3001,150.6273,0.3668,-275,0.2,275,1,0;0.5;0,1,150.2403,1.0,780.0,-618.0,1,1
78,150.9941,-10533.0639,-10382.0698,10533.7809,151.7110,0.3001,152.0112,0.3668,275,0.05,-275,0.6,0;0.5;0,0,151.6157,0.0,-779.0,-639.0,1,1
79,152.3780,-10534.4478,-10382.0698,10535.2315,153.1616,0.3001,153.4618,0.3668,275,0.2,-275,0.2671,1;0;0,0,153.0663,1.0,778.0,-618.0,1,0
80,153.8286,-10535.8984,-10382.0698,10536.4653,154.3955,0.3001,154.6956,0.3668,-275,0.05,275,0.0735,0;0.5;0,1,154.3002,1.0,787.0,-606.0,1,1
81,155.0624,-10537.1322,-10382.0698,10537.5157,155.4459,0.3001,155.7460,0.3668,275,0.0167,-275,0.2088,0;0.5;0,0,155.3506,0.0,-779.0,-644.0,1,1
82,156.1128,-10538.1827,-10382.0698,10538.7662,156.6964,0.3001,156.9965,0.3668,-275,0,275,0.0671,0;0.5;0,1,156.6095,1.0,783.0,-609.0,1,1
83,157.3633,-10539.4332,-10382.0698,10540.3502,158.2804,0.3001,158.5805,0.3668,275,0,-275,0.0029,0;0.5;0,0,158.1934,0.0,-780.0,-632.0,1,1
84,158.9473,-10541.0171,-10382.0698,10542.0175,159.9477,0.3001,160.2478,0.3668,275,0,-275,0.001,1;0;0,0,159.8607,1.0,783.0,-611.0,1,0
85,160.6146,-10542.6845,-10382.0698,10543.3014,161.2315,0.3001,161.5317,0.3668,275,0.2,-275,0.3921,0;0.5;0,0,161.1364,0.0,-782.0,-630.0,1,1
86,161.8985,-10543.9683,-10382.0698,10544.5352,162.4654,0.3001,162.7655,0.3668,275,0.45,-275,1,0;0.5;0,0,162.3702,0.0,-782.0,-633.0,1,1
87,163.1323,-10545.2021,-10382.0698,10546.4860,164.4162,0.3001,164.7163,0.3668,-275,0.05,275,0.0529,0;0.5;0,1,164.3211,1.0,774.0,-622.0,1,1
88,165.0831,-10547.1529,-10382.0698,10547.8365,165.7667,0.3001,166.0668,0.3668,-275,0.0088,275,0.2009,0;0.5;0,1,165.6715,1.0,777.0,-606.0,1,1
89,166.4336,-10548.5035,-10382.0698,10549.3038,167.2340,0.3001,167.5341,0.3668,275,0.05,-275,0.1171,0;0.5;0,0,167.1386,0.0,-788.0,-633.0,1,1
90,167.9009,-10549.9707,-10382.0698,10551.8382,169.7683,0.3001,170.0684,0.3668,-275,0.0167,275,0.0177,1;0;0,1,169.6815,0.0,-783.0,-637.0,1,0
91,170.4352,-10552.5051,-10382.0698,10553.2220,171.1522,0.3001,171.4523,0.3668,-275,0.0088,275,0.0759,0;0.5;0,1,171.0653,1.0,776.0,-611.0,1,1
92,171.8191,-10553.8890,-10382.0698,10554.4059,172.3360,0.3001,172.6361,0.3668,-275,0.0088,275,0.2009,0;0.5;0,1,172.2493,1.0,778.0,-610.0,1,1
93,173.0029,-10555.0728,-10382.0698,10556.2399,174.1701,0.3001,174.4702,0.3668,-275,0.45,275,0.4735,0;0.5;0,1,174.0748,1.0,781.0,-605.0,1,1
94,174.8370,-10556.9069,-10382.0698,10557.9406,175.8708,0.3001,176.1709,0.3668,275,0.0167,-275,0.0196,0;0.5;0,0,175.7756,0.0,-777.0,-629.0,1,1
95,176.5377,-10558.6075,-10382.0698,10559.2911,177.2213,0.3001,177.5214,0.3668,-275,0.05,275,0.6,0;0.5;0,1,177.1261,1.0,773.0,-619.0,1,1
96,177.8882,-10559.9581,-10382.0698,10560.8084,178.7386,0.3001,179.0387,0.3668,-275,0.45,275,0.4582,0;0.5;0,1,178.6434,1.0,775.0,-614.0,1,1
97,179.4055,-10561.4754,-10382.0698,10562.1590,180.0891,0.3001,180.3892,0.3668,-275,0.05,275,0.0735,0;0.5;0,1,180.0024,1.0,773.0,-618.0,1,1
98,180.7561,-10562.8259,-10382.0698,10563.8263,181.7565,0.3001,182.0566,0.3668,275,0.0088,-275,0.0117,0;0.5;0,0,181.6612,0.0,-782.0,-638.0,1,1
99,182.4234,-10564.4932,-10382.0698,10565.3269,183.2571,0.3001,183.5572,0.3668,-275,0,275,0.001,0;0.5;0,1,183.1703,1.0,780.0,-600.0,1,1
100,183.9240,-10565.9938,-10382.0698,10566.6108,184.5409,0.3001,184.8410,0.3668,275,0.45,-275,1,0;0.5;0,0,184.4457,0.0,-782.0,-640.0,1,1
101,185.2079,-10567.2777,-10382.0698,10568.9284,186.8585,0.3001,187.1586,0.3668,275,0.0167,-275,0.0177,0;0.5;0,0,186.7633,0.0,-783.0,-634.0,1,1
102,187.5254,-10569.5953,-10382.0698,10570.6165,188.5467,0.3001,188.8468,0.3668,275,0.05,-275,0.0735,1;0;0,0,188.4475,1.0,776.0,-611.0,1,0
103,189.2136,-10571.2835,-10382.0698,10572.6632,190.5933,0.3001,190.8935,0.3668,275,0.0167,-275,0.0402,0;0.5;0,0,190.5064,0.0,-777.0,-642.0,1,1
104,191.2603,-10573.3301,-10382.0698,10573.9971,191.9272,0.3001,192.2273,0.3668,-275,0.2,275,1,0;0.5;0,1,191.8403,1.0,774.0,-613.0,1,1
105,192.5942,-10574.6640,-10382.0698,10575.3143,193.2444,0.3001,193.5445,0.3668,-275,0.0167,275,0.0402,0;0.5;0,1,193.1492,1.0,778.0,-608.0,1,1
106,193.9113,-10575.9812,-10382.0698,10576.5147,194.4449,0.3001,194.7450,0.3668,275,0.0088,-275,0.2009,0;0.5;0,0,194.3581,0.0,-777.0,-644.0,1,1
107,195.1118,-10577.1817,-10382.0698,10577.6319,195.5620,0.3001,195.8621,0.3668,-275,0.2,275,0.3921,0;0.5;0,1,195.4752,1.0,773.0,-617.0,1,1
108,196.2289,-10578.2988,-10382.0698,10579.1491,197.0793,0.3001,197.3794,0.3668,-275,0.05,275,0.0529,0;0.5;0,1,196.9924,1.0,776.0,-612.0,1,1
109,197.7462,-10579.8161,-10382.0698,10580.3663,198.2964,0.3001,198.5966,0.3668,-275,0.0088,275,0.2009,0;0.5;0,1,198.2096,1.0,775.0,-617.0,1,1
110,198.9634,-10581.0332,-10382.0698,10581.4667,199.3969,0.3001,199.6970,0.3668,-275,0,275,0.1921,0;0.5;0,1,199.3101,1.0,776.0,-614.0,1,1
111,200.0638,-10582.1337,-10382.0698,10582.7172,200.6474,0.3001,200.9475,0.3668,275,0.2,-275,0.3921,0;0.5;0,0,200.5522,0.0,-778.0,-641.0,1,1
112,201.3143,-10583.3842,-10382.0698,10584.0011,201.9312,0.3001,202.2314,0.3668,275,0.0167,-275,0.0196,1;0;0,0,201.8361,1.0,774.0,-613.0,1,0
113,202.5982,-10584.6680,-10382.0698,10585.1682,203.0984,0.3001,203.3985,0.3668,-275,0,275,0.1921,0;0.5;0,1,203.0116,1.0,777.0,-608.0,1,1
114,203.7653,-10585.8352,-10382.0698,10586.8356,204.7657,0.3001,205.0658,0.3668,-275,0.45,275,0.4735,0;0.5;0,1,204.6787,1.0,771.0,-615.0,1,1
115,205.4326,-10587.5025,-10382.0698,10588.1361,206.0662,0.3001,206.3664,0.3668,-275,0.0167,275,0.0177,0;0.5;0,1,205.9794,1.0,776.0,-608.0,1,1
116,206.7332,-10588.8030,-10382.0698,10589.2699,207.2000,0.3001,207.5001,0.3668,-275,0.0088,275,0.2009,0;0.5;0,1,207.1048,1.0,778.0,-608.0,1,1
117,207.8670,-10589.9368,-10382.0698,10590.4870,208.4172,0.3001,208.7173,0.3668,275,0.0167,-275,0.0838,0;0.5;0,0,208.3305,0.0,-777.0,-637.0,1,1
118,209.0841,-10591.1540,-10382.0698,10592.2211,210.1512,0.3001,210.4513,0.3668,275,0.2,-275,0.2235,0;0.5;0,0,210.0560,0.0,-776.0,-632.0,1,1
119,210.8181,-10592.8880,-10382.0698,10593.4382,211.3684,0.3001,211.6685,0.3668,-275,0.0167,275,0.0249,0;0.5;0,1,211.2731,1.0,777.0,-608.0,1,1
120,212.0353,-10594.1051,-10382.0698,10594.6554,212.5855,0.3001,212.8856,0.3668,-275,0.2,275,0.2671,0;0.5;0,1,212.4903,1.0,769.0,-615.0,1,1
121,213.2525,-10595.3223,-10382.0698,10595.7558,213.6860,0.3001,213.9861,0.3668,-275,0.2,275,0.75,0;0.5;0,1,213.5907,1.0,778.0,-606.0,1,1
122,214.3529,-10596.4227,-10382.0698,10597.2397,215.1699,0.3001,215.4700,0.3668,275,0.0088,-275,0.017,0;0.5;0,0,215.0829,0.0,-777.0,-638.0,1,1
123,215.8368,-10597.9067,-10382.0698,10598.5236,216.4537,0.3001,216.7539,0.3668,275,0.45,-275,0.4735,0;0.5;0,0,216.3667,0.0,-776.0,-627.0,1,1
124,217.1207,-10599.1905,-10382.0698,10599.8575,217.7876,0.3001,218.0877,0.3668,275,0.0167,-275,0.0196,1;0;0,0,217.6924,1.0,776.0,-605.0,1,0
125,218.4545,-10600.5244,-10382.0698,10601.1747,219.1048,0.3001,219.4049,0.3668,-275,0.05,275,0.0735,0;0.5;0,1,219.0178,1.0,774.0,-606.0,1,1
126,219.7717,-10601.8416,-10382.0698,10602.4919,220.4220,0.3001,220.7221,0.3668,-275,0.0167,275,0.0249,0;0.5;0,1,220.3350,1.0,778.0,-601.0,1,1
127,221.0889,-10603.1588,-10382.0698,10603.5756,221.5058,0.3001,221.8059,0.3668,275,0,-275,0.0235,0;0.5;0,0,221.4105,0.0,-775.0,-637.0,1,1
128,222.1727,-10604.2426,-10382.0698,10604.6761,222.6062,0.3001,222.9063,0.3668,275,0.0088,-275,0.0098,1;0;0,0,222.5109,1.0,778.0,-604.0,1,0
129,223.2732,-10605.3430,-10382.0698,10605.9599,223.8901,0.3001,224.1902,0.3668,-275,0.45,275,0.4582,0;0.5;0,1,223.8032,1.0,777.0,-604.0,1,1
130,224.5570,-10606.6268,-10382.0698,10607.0103,224.9405,0.3001,225.2406,0.3668,275,0,-275,0.0235,0;0.5;0,0,224.8535,0.0,-776.0,-640.0,1,1
131,225.6074,-10607.6773,-10382.0698,10608.0441,225.9742,0.3001,226.2744,0.3668,275,0.05,-275,0.1171,1;0;0,0,225.8790,1.0,774.0,-609.0,1,0
132,226.6412,-10608.7110,-10382.0698,10609.0612,226.9913,0.3001,227.2914,0.3668,-275,0.05,275,0.0582,1;0;0,1,226.9044,0.0,-774.0,-651.0,1,0
133,227.6582,-10609.7281,-10382.0698,10611.0620,228.9921,0.3001,229.2922,0.3668,275,0.2,-275,0.2671,0;0.5;0,0,228.9052,0.0,-774.0,-644.0,1,1
134,229.6591,-10611.7289,-10382.0698,10612.4292,230.3593,0.3001,230.6595,0.3668,-275,0.2,275,1,0;0.5;0,1,230.2641,1.0,765.0,-623.0,1,1
135,231.0263,-10613.0961,-10382.0698,10614.4967,232.4268,0.3001,232.7270,0.3668,275,0,-275,0.0029,0;0.5;0,0,232.3400,0.0,-745.0,-638.0,1,1
136,233.0938,-10615.1636,-10382.0698,10615.7472,233.6773,0.3001,233.9775,0.3668,-275,0.0167,275,0.0838,0;0.5;0,1,233.5822,1.0,756.0,-608.0,1,1
137,234.3443,-10616.4141,-10382.0698,10616.9810,234.9112,0.3001,235.2113,0.3668,-275,0.2,275,0.3921,0;0.5;0,1,234.8160,1.0,753.0,-609.0,1,1
138,235.5781,-10617.6479,-10382.0698,10618.4316,236.3617,0.3001,236.6619,0.3668,-275,0.0088,275,0.0117,0;0.5;0,1,236.2665,1.0,757.0,-607.0,1,1
139,237.0287,-10619.0985,-10382.0698,10619.6821,237.6122,0.3001,237.9124,0.3668,275,0.45,-275,0.5171,0;0.5;0,0,237.5171,0.0,-754.0,-648.0,1,1
140,238.2792,-10620.3490,-10382.0698,10620.9493,238.8794,0.3001,239.1795,0.3668,275,0.0167,-275,0.0838,0;0.5;0,0,238.7842,0.0,-759.0,-653.0,1,1
141,239.5464,-10621.6162,-10382.0698,10622.0831,240.0132,0.3001,240.3133,0.3668,275,0,-275,0.0235,0;0.5;0,0,239.9264,0.0,-764.0,-652.0,1,1
142,240.6801,-10622.7500,-10382.0698,10623.8004,241.7306,0.3001,242.0307,0.3668,-275,0.0167,275,0.0196,1;0;0,1,241.6436,0.0,-764.0,-645.0,1,0
143,242.3975,-10624.4673,-10382.0698,10625.1009,243.0311,0.3001,243.3312,0.3668,-275,0.2,275,0.2671,0;0.5;0,1,242.9359,1.0,762.0,-597.0,1,1
144,243.6980,-10625.7679,-10382.0698,10626.3014,244.2316,0.3001,244.5317,0.3668,-275,0.0088,275,0.0759,0;0.5;0,1,244.1364,1.0,767.0,-594.0,1,1
145,244.8985,-10626.9684,-10382.0698,10627.4352,245.3654,0.3001,245.6655,0.3668,-275,0.05,275,0.0735,0;0.5;0,1,245.2784,1.0,763.0,-593.0,1,1
146,246.0323,-10628.1021,-10382.0698,10628.7024,246.6325,0.3001,246.9327,0.3668,275,0.05,-275,0.0529,0;0.5;0,0,246.5456,0.0,-764.0,-637.0,1,1
147,247.2995,-10629.3693,-10382.0698,10629.9029,247.8330,0.3001,248.1331,0.3668,275,0,-275,0.0082,0;0.5;0,0,247.7460,0.0,-760.0,-646.0,1,1
148,248.5000,-10630.5698,-10382.0698,10630.9366,248.8668,0.3001,249.1669,0.3668,-275,0.0167,275,0.2088,0;0.5;0,1,248.7716,1.0,765.0,-594.0,1,1
149,249.5337,-10631.6036,-10382.0698,10632.0371,249.9672,0.3001,250.2673,0.3668,-275,0.2,275,1,0;0.5;0,1,249.8803,1.0,760.0,-599.0,1,1
150,250.6341,-10632.7040,-10382.0698,10633.1708,251.1010,0.3001,251.4011,0.3668,-275,0.0167,275,0.0838,0;0.5;0,1,251.0057,1.0,766.0,-594.0,1,1
151,251.7679,-10633.8378,-10382.0698,10634.7548,252.6850,0.3001,252.9851,0.3668,-275,0,275,0.001,1;0;0,1,252.5982,0.0,-760.0,-636.0,1,0
152,253.3519,-10635.4218,-10382.0698,10635.8052,253.7354,0.3001,254.0355,0.3668,-275,0.05,275,0.0582,0;0.5;0,1,253.6484,1.0,769.0,-591.0,1,1
153,254.4023,-10636.4722,-10382.0698,10637.0391,254.9692,0.3001,255.2693,0.3668,275,0.45,-275,0.5171,0;0.5;0,0,254.8823,0.0,-754.0,-628.0,1,1
154,255.6362,-10637.7060,-10382.0698,10638.4230,256.3531,0.3001,256.6532,0.3668,275,0.45,-275,0.4582,0;0.5;0,0,256.2578,0.0,-759.0,-638.0,1,1
155,257.0200,-10639.0899,-10382.0698,10639.9069,257.8370,0.3001,258.1372,0.3668,275,0,-275,0.0082,0;0.5;0,0,257.7418,0.0,-759.0,-632.0,1,1
156,258.5040,-10640.5738,-10382.0698,10641.2408,259.1709,0.3001,259.4710,0.3668,275,0.0167,-275,0.0177,0;0.5;0,0,259.0839,0.0,-761.0,-628.0,1,1
157,259.8378,-10641.9077,-10382.0698,10642.4412,260.3714,0.3001,260.6715,0.3668,-275,0.05,275,0.0735,0;0.5;0,1,260.2846,1.0,767.0,-593.0,1,1
158,261.0383,-10643.1082,-10382.0698,10643.5083,261.4385,0.3001,261.7386,0.3668,275,0.0167,-275,0.0838,0;0.5;0,0,261.3432,0.0,-763.0,-632.0,1,1
159,262.1054,-10644.1753,-10382.0698,10644.9422,262.8724,0.3001,263.1725,0.3668,275,0.0167,-275,0.0196,1;0;0,0,262.7772,1.0,766.0,-595.0,1,0
160,263.5393,-10645.6092,-10382.0698,10646.3261,264.2563,0.3001,264.5564,0.3668,-275,0.2,275,0.3921,0;0.5;0,1,264.1695,1.0,769.0,-590.0,1,1
161,264.9232,-10646.9931,-10382.0698,10647.6933,265.6235,0.3001,265.9236,0.3668,-275,0.2,275,0.2235,0;0.5;0,1,265.5283,1.0,769.0,-584.0,1,1
162,266.2904,-10648.3603,-10382.0698,10648.8438,266.7740,0.3001,267.0741,0.3668,-275,0.0088,275,0.0323,0;0.5;0,1,266.6871,1.0,768.0,-584.0,1,1
163,267.4409,-10649.5107,-10382.0698,10650.3944,268.3246,0.3001,268.6247,0.3668,275,0.2,-275,0.2082,1;0;0,0,268.2293,1.0,764.0,-584.0,1,0
164,268.9915,-10651.0614,-10382.0698,10651.4115,269.3417,0.3001,269.6418,0.3668,-275,0.45,275,0.4735,0;0.5;0,1,269.2549,1.0,769.0,-579.0,1,1
165,270.0086,-10652.0784,-10382.0698,10652.5953,270.5255,0.3001,270.8256,0.3668,-275,0.05,275,0.2421,0;0.5;0,1,270.4303,1.0,774.0,-577.0,1,1
166,271.1924,-10653.2623,-10382.0698,10653.9459,271.8760,0.3001,272.1761,0.3668,275,0.2,-275,0.2671,0;0.5;0,0,271.7809,0.0,-756.0,-640.0,1,1
167,272.5430,-10654.6128,-10382.0698,10655.0296,272.9598,0.3001,273.2599,0.3668,-275,0.0088,275,0.017,0;0.5;0,1,272.8645,1.0,770.0,-585.0,1,1
168,273.6267,-10655.6966,-10382.0698,10656.2301,274.1603,0.3001,274.4604,0.3668,275,0.2,-275,0.2671,0;0.5;0,0,274.0652,0.0,-758.0,-628.0,1,1
169,274.8272,-10656.8970,-10382.0698,10657.6974,275.6275,0.3001,275.9276,0.3668,-275,0,275,0.0029,0;0.5;0,1,275.5322,1.0,774.0,-576.0,1,1
170,276.2945,-10658.3643,-10382.0698,10658.9479,276.8780,0.3001,277.1781,0.3668,275,0.45,-275,0.5171,0;0.5;0,0,276.7913,0.0,-760.0,-625.0,1,1
171,277.5450,-10659.6148,-10382.0698,10660.3651,278.2953,0.3001,278.5954,0.3668,-275,0,275,0.0029,0;0.5;0,1,278.2084,1.0,777.0,-571.0,1,1
172,278.9622,-10661.0320,-10382.0698,10661.6990,279.6291,0.3001,279.9293,0.3668,-275,0.2,275,0.75,0;0.5;0,1,279.5339,1.0,773.0,-573.0,1,1
173,280.2961,-10662.3659,-10382.0698,10662.9662,280.8963,0.3001,281.1964,0.3668,-275,0,275,0.0671,0;0.5;0,1,280.8095,1.0,777.0,-570.0,1,1
174,281.5632,-10663.6331,-10382.0698,10664.1833,282.1135,0.3001,282.4136,0.3668,-275,0.0088,275,0.0323,0;0.5;0,1,282.0183,1.0,779.0,-568.0,1,1
175,282.7804,-10664.8502,-10382.0698,10665.2504,283.1806,0.3001,283.4807,0.3668,275,0.0088,-275,0.2009,0;0.5;0,0,283.0936,0.0,-758.0,-630.0,1,1
176,283.8475,-10665.9173,-10382.0698,10666.2675,284.1976,0.3001,284.4978,0.3668,-275,0.2,275,0.2235,0;0.5;0,1,284.1025,1.0,778.0,-571.0,1,1
177,284.8646,-10666.9344,-10382.0698,10667.4846,285.4148,0.3001,285.7149,0.3668,275,0.45,-275,0.4582,0;0.5;0,0,285.3196,0.0,-766.0,-621.0,1,1
178,286.0817,-10668.1516,-10382.0698,10668.7185,286.6486,0.3001,286.9487,0.3668,275,0.45,-275,0.6421,0;0.5;0,0,286.5534,0.0,-763.0,-621.0,1,1
179,287.3156,-10669.3854,-10382.0698,10669.7689,287.6990,0.3001,287.9992,0.3668,-275,0.05,275,0.2421,0;0.5;0,1,287.6037,1.0,777.0,-575.0,1,1
180,288.3660,-10670.4358,-10382.0698,10670.7860,288.7161,0.3001,289.0162,0.3668,275,0.0088,-275,0.2009,0;0.5;0,0,288.6208,0.0,-759.0,-630.0,1,1
181,289.3831,-10671.4529,-10382.0698,10671.9531,289.8833,0.3001,290.1834,0.3668,275,0.45,-275,1,0;0.5;0,0,289.7964,0.0,-763.0,-622.0,1,1
182,290.5502,-10672.6200,-10382.0698,10673.1036,291.0337,0.3001,291.3338,0.3668,275,0.05,-275,0.1171,0;0.5;0,0,290.9469,0.0,-763.0,-622.0,1,1
183,291.7007,-10673.7705,-10382.0698,10674.1373,292.0675,0.3001,292.3676,0.3668,275,0.2,-275,0.75,0;0.5;0,0,291.9806,0.0,-760.0,-626.0,1,1
184,292.7344,-10674.8042,-10382.0698,10675.2544,293.1846,0.3001,293.4847,0.3668,275,0,-275,0.0671,0;0.5;0,0,293.0894,0.0,-764.0,-623.0,1,1
185,293.8515,-10675.9214,-10382.0698,10676.3882,294.3184,0.3001,294.6185,0.3668,275,0.2,-275,0.3921,0;0.5;0,0,294.2315,0.0,-764.0,-618.0,1,1
186,294.9853,-10677.0551,-10382.0698,10677.5720,295.5022,0.3001,295.8023,0.3668,275,0.2,-275,0.3921,0;0.5;0,0,295.4071,0.0,-764.0,-611.0,1,1
187,296.1691,-10678.2390,-10382.0698,10678.8725,296.8027,0.3001,297.1028,0.3668,275,0.2,-275,0.2082,1;0;0,0,296.7073,1.0,762.0,-583.0,1,0
188,297.4696,-10679.5395,-10382.0698,10680.5732,298.5034,0.3001,298.8035,0.3668,275,0,-275,0.0029,0;0.5;0,0,298.4081,0.0,-740.0,-606.0,1,1
189,299.1703,-10681.2402,-10382.0698,10681.9071,299.8373,0.3001,300.1374,0.3668,275,0.05,-275,0.0529,0;0.5;0,0,299.7421,0.0,-748.0,-604.0,1,1
190,300.5042,-10682.5740,-10382.0698,10683.1909,301.1211,0.3001,301.4212,0.3668,-275,0.45,275,0.4735,1;0;0,1,301.0343,0.0,-750.0,-599.0,1,0
191,301.7880,-10683.8579,-10382.0698,10684.5748,302.5050,0.3001,302.8051,0.3668,275,0.0167,-275,0.2088,0;0.5;0,0,302.4183,0.0,-647.0,-575.0,1,1
192,303.1719,-10685.2418,-10382.0698,10685.9254,303.8555,0.3001,304.1557,0.3668,-275,0.0088,275,0.0323,0;0.5;0,1,303.7603,1.0,747.0,-599.0,1,1
193,304.5225,-10686.5923,-10382.0698,10687.3426,305.2728,0.3001,305.5729,0.3668,275,0.2,-275,0.2082,1;0;0,0,305.1858,1.0,740.0,-608.0,1,0
194,305.9397,-10688.0095,-10382.0698,10688.6932,306.6233,0.3001,306.9234,0.3668,-275,0.45,275,0.5171,0;0.5;0,1,306.5364,1.0,743.0,-600.0,1,1
195,307.2902,-10689.3601,-10382.0698,10689.8770,307.8071,0.3001,308.1072,0.3668,275,0.05,-275,0.1171,0;0.5;0,0,307.7203,0.0,-676.0,-621.0,1,1
196,308.4741,-10690.5439,-10382.0698,10691.0274,308.9576,0.3001,309.2577,0.3668,-275,0.05,275,0.2421,0;0.5;0,1,308.8708,1.0,747.0,-597.0,1,1
197,309.6245,-10691.6944,-10382.0698,10692.3780,310.3081,0.3001,310.6082,0.3668,275,0.05,-275,0.0529,1;0;0,0,310.2213,1.0,746.0,-595.0,1,0
198,310.9751,-10693.0449,-10382.0698,10693.5785,311.5086,0.3001,311.8087,0.3668,275,0.0167,-275,0.0249,0;0.5;0,0,311.4133,0.0,-678.0,-619.0,1,1
199,312.1755,-10694.2454,-10382.0698,10694.8623,312.7925,0.3001,313.0926,0.3668,275,0.45,-275,0.5171,0;0.5;0,0,312.7056,0.0,-680.0,-616.0,1,1
200,313.4594,-10695.5292,-10382.0698,10696.1628,314.0930,0.3001,314.3931,0.3668,-275,0.0167,275,0.0838,0;0.5;0,1,314.0062,1.0,746.0,-595.0,1,1
201,314.7599,-10696.8298,-10382.0698,10697.5967,315.5269,0.3001,315.8270,0.3668,-275,0.0088,275,0.0117,0;0.5;0,1,315.4401,1.0,749.0,-592.0,1,1
202,316.1938,-10698.2637,-10382.0698,10698.7972,316.7274,0.3001,317.0275,0.3668,-275,0.0088,275,0.0117,0;0.5;0,1,316.6406,1.0,749.0,-594.0,1,1
203,317.3943,-10699.4641,-10382.0698,10700.2811,318.2113,0.3001,318.5114,0.3668,-275,0.0088,275,0.0098,0;0.5;0,1,318.1244,1.0,749.0,-592.0,1,1
204,318.8782,-10700.9481,-10382.0698,10701.7817,319.7119,0.3001,320.0120,0.3668,275,0.45,-275,0.5171,0;0.5;0,0,319.6167,0.0,-674.0,-622.0,1,1
205,320.3788,-10702.4487,-10382.0698,10702.9155,320.8457,0.3001,321.1458,0.3668,275,0.0088,-275,0.0323,0;0.5;0,0,320.7587,0.0,-675.0,-617.0,1,1
206,321.5126,-10703.5825,-10382.0698,10704.2828,322.2129,0.3001,322.5130,0.3668,-275,0,275,0.001,0;0.5;0,1,322.1175,1.0,748.0,-592.0,1,1
207,322.8798,-10704.9497,-10382.0698,10705.4666,323.3967,0.3001,323.6968,0.3668,275,0.45,-275,0.6421,0;0.5;0,0,323.3016,0.0,-676.0,-618.0,1,1
208,324.0637,-10706.1335,-10382.0698,10706.7004,324.6305,0.3001,324.9307,0.3668,-275,0.0167,275,0.0177,0;0.5;0,1,324.5353,1.0,740.0,-598.0,1,1
209,325.2975,-10707.3673,-10382.0698,10708.0676,325.9978,0.3001,326.2979,0.3668,-275,0.05,275,0.1171,0;0.5;0,1,325.9108,1.0,740.0,-583.0,1,1
210,326.6647,-10708.7345,-10382.0698,10709.3014,327.2316,0.3001,327.5317,0.3668,275,0.2,-275,0.2082,0;0.5;0,0,327.1449,0.0,-678.0,-627.0,1,1
211,327.8985,-10709.9684,-10382.0698,10710.5353,328.4654,0.3001,328.7655,0.3668,-275,0.0088,275,0.017,0;0.5;0,1,328.3703,1.0,741.0,-582.0,1,1
212,329.1324,-10711.2022,-10382.0698,10711.6857,329.6159,0.3001,329.9160,0.3668,-275,0.45,275,1,0;0.5;0,1,329.5291,1.0,738.0,-585.0,1,1
213,330.2828,-10712.3527,-10382.0698,10713.0696,330.9998,0.3001,331.2999,0.3668,275,0.2,-275,0.2235,0;0.5;0,0,330.9128,0.0,-678.0,-620.0,1,1
214,331.6667,-10713.7365,-10382.0698,10714.3701,332.3003,0.3001,332.6004,0.3668,275,0.05,-275,0.1171,0;0.5;0,0,332.2134,0.0,-680.0,-613.0,1,1
215,332.9672,-10715.0371,-10382.0698,10715.6373,333.5675,0.3001,333.8676,0.3668,-275,0.0088,275,0.017,0;0.5;0,1,333.4806,1.0,734.0,-588.0,1,1
216,334.2344,-10716.3042,-10382.0698,10716.6711,334.6012,0.3001,334.9013,0.3668,275,0.05,-275,0.0735,0;0.5;0,0,334.5059,0.0,-678.0,-613.0,1,1
217,335.2682,-10717.3380,-10382.0698,10717.8715,335.8017,0.3001,336.1018,0.3668,275,0.2,-275,1,0;0.5;0,0,335.7065,0.0,-677.0,-604.0,1,1
218,336.4686,-10718.5385,-10382.0698,10719.2221,337.1522,0.3001,337.4524,0.3668,-275,0.45,275,0.4582,1;0;0,1,337.0653,0.0,-679.0,-618.0,1,0
219,337.8192,-10719.8890,-10382.0698,10720.2392,338.1693,0.3001,338.4694,0.3668,-275,0.2,275,0.2235,0;0.5;0,1,338.0824,1.0,735.0,-587.0,1,1
220,338.8363,-10720.9061,-10382.0698,10721.3896,339.3198,0.3001,339.6199,0.3668,275,0.0088,-275,0.0759,0;0.5;0,0,339.2328,0.0,-677.0,-612.0,1,1
221,339.9867,-10722.0566,-10382.0698,10722.4400,340.3702,0.3001,340.6703,0.3668,-275,0.0167,275,0.0838,0;0.5;0,1,340.2753,1.0,737.0,-586.0,1,1
222,341.0371,-10723.1070,-10382.0698,10723.5071,341.4373,0.3001,341.7374,0.3668,275,0.2,-275,0.2235,0;0.5;0,0,341.3504,0.0,-678.0,-613.0,1,1
223,342.1042,-10724.1741,-10382.0698,10724.5242,342.4544,0.3001,342.7545,0.3668,-275,0,275,0.0671,0;0.5;0,1,342.3590,1.0,735.0,-588.0,1,1
224,343.1213,-10725.1911,-10382.0698,10725.7080,343.6382,0.3001,343.9383,0.3668,-275,0,275,0.0082,1;0;0,1,343.5428,0.0,-677.0,-613.0,1,0
225,344.3051,-10726.3750,-10382.0698,10726.9752,344.9054,0.3001,345.2055,0.3668,275,0.45,-275,0.6421,0;0.5;0,0,344.8185,0.0,-676.0,-606.0,1,1
226,345.5723,-10727.6421,-10382.0698,10728.3424,346.2726,0.3001,346.5727,0.3668,275,0.05,-275,0.1171,0;0.5;0,0,346.1774,0.0,-677.0,-610.0,1,1
227,346.9395,-10729.0093,-10382.0698,10730.5766,348.5068,0.3001,348.8069,0.3668,-275,0.45,275,0.4582,0;0.5;0,1,348.4200,1.0,723.0,-604.0,1,1
228,349.1737,-10731.2436,-10382.0698,10731.7104,349.6406,0.3001,349.9407,0.3668,275,0,-275,0.1921,0;0.5;0,0,349.5536,0.0,-676.0,-614.0,1,1
229,350.3075,-10732.3774,-10382.0698,10733.0276,350.9578,0.3001,351.2579,0.3668,-275,0.05,275,0.0582,0;0.5;0,1,350.8625,1.0,726.0,-603.0,1,1
230,351.6247,-10733.6946,-10382.0698,10734.4115,352.3417,0.3001,352.6418,0.3668,275,0,-275,0.001,0;0.5;0,0,352.2464,0.0,-677.0,-614.0,1,1
231,353.0086,-10735.0785,-10382.0698,10735.8788,353.8089,0.3001,354.1091,0.3668,275,0.0167,-275,0.0177,0;0.5;0,0,353.7222,0.0,-676.0,-614.0,1,1
232,354.4759,-10736.5457,-10382.0698,10737.1126,355.0428,0.3001,355.3429,0.3668,-275,0.0167,275,0.0838,0;0.5;0,1,354.9559,1.0,723.0,-605.0,1,1
233,355.7097,-10737.7795,-10382.0698,10738.4965,356.4266,0.3001,356.7268,0.3668,275,0.2,-275,0.2671,0;0.5;0,0,356.3317,0.0,-670.0,-621.0,1,1
234,357.0936,-10739.1634,-10382.0698,10739.5302,357.4604,0.3001,357.7605,0.3668,-275,0.45,275,1,0;0.5;0,1,357.3652,1.0,725.0,-599.0,1,1
235,358.1273,-10740.1972,-10382.0698,10740.6474,358.5775,0.3001,358.8776,0.3668,275,0.2,-275,1,0;0.5;0,0,358.4907,0.0,-673.0,-611.0,1,1
236,359.2444,-10741.3143,-10382.0698,10741.8312,359.7613,0.3001,360.0614,0.3668,-275,0.05,275,0.1171,0;0.5;0,1,359.6744,1.0,727.0,-601.0,1,1
237,360.4283,-10742.4981,-10382.0698,10743.0983,361.0285,0.3001,361.3286,0.3668,-275,0.45,275,0.6421,1;0;0,1,360.9333,0.0,-670.0,-613.0,1,0
238,361.6954,-10743.7653,-10382.0698,10744.2655,362.1956,0.3001,362.4958,0.3668,275,0.05,-275,0.0529,1;0;0,0,362.1003,1.0,725.0,-600.0,1,0
239,362.8626,-10744.9324,-10382.0698,10745.7494,363.6796,0.3001,363.9797,0.3668,275,0.0167,-275,0.0402,1;0;0,0,363.5844,1.0,724.0,-599.0,1,0
240,364.3465,-10746.4163,-10382.0698,10747.4501,365.3802,0.3001,365.6804,0.3668,-275,0.45,275,0.4735,0;0.5;0,1,365.2850,1.0,723.0,-596.0,1,1
241,366.0472,-10748.1170,-10382.0698,10748.8673,366.7975,0.3001,367.0976,0.3668,-275,0.0167,275,0.0196,0;0.5;0,1,366.7023,1.0,721.0,-595.0,1,1
242,367.4644,-10749.5343,-10382.0698,10750.1178,368.0480,0.3001,368.3481,0.3668,-275,0.45,275,0.5171,0;0.5;0,1,367.9526,1.0,723.0,-596.0,1,1
243,368.7149,-10750.7848,-10382.0698,10752.0853,370.0154,0.3001,370.3156,0.3668,275,0.2,-275,0.2235,1;0;0,0,369.9286,1.0,715.0,-596.0,1,0
244,370.6824,-10752.7522,-10382.0698,10753.4192,371.3493,0.3001,371.6494,0.3668,275,0.0167,-275,0.0177,0;0.5;0,0,371.2624,0.0,-668.0,-615.0,1,1
245,372.0162,-10754.0861,-10382.0698,10754.7197,372.6498,0.3001,372.9500,0.3668,-275,0.45,275,0.5171,0;0.5;0,1,372.5546,1.0,716.0,-592.0,1,1
246,373.3168,-10755.3866,-10382.0698,10755.9035,373.8336,0.3001,374.1338,0.3668,275,0,-275,0.0671,0;0.5;0,0,373.7385,0.0,-668.0,-614.0,1,1
247,374.5006,-10756.5704,-10382.0698,10756.9372,374.8674,0.3001,375.1675,0.3668,-275,0.0167,275,0.0402,0;0.5;0,1,374.7805,1.0,720.0,-590.0,1,1
248,375.5343,-10757.6042,-10382.0698,10758.1544,376.0845,0.3001,376.3847,0.3668,275,0.0088,-275,0.017,0;0.5;0,0,375.9893,0.0,-666.0,-614.0,1,1
249,376.7515,-10758.8213,-10382.0698,10759.2048,377.1350,0.3001,377.4351,0.3668,-275,0.0088,275,0.2009,0;0.5;0,1,377.0480,1.0,720.0,-594.0,1,1
250,377.8019,-10759.8717,-10382.0698,10760.3386,378.2688,0.3001,378.5689,0.3668,-275,0.2,275,0.2671,0;0.5;0,1,378.1735,1.0,714.0,-600.0,1,1
251,378.9357,-10761.0055,-10382.0698,10761.8059,379.7360,0.3001,380.0361,0.3668,275,0.0088,-275,0.0117,0;0.5;0,0,379.6492,0.0,-666.0,-613.0,1,1
252,380.4029,-10762.4728,-10382.0698,10762.8396,380.7698,0.3001,381.0699,0.3668,-275,0.0167,275,0.0402,0;0.5;0,1,380.6828,1.0,716.0,-596.0,1,1
253,381.4367,-10763.5065,-10382.0698,10764.2902,382.2203,0.3001,382.5205,0.3668,-275,0.05,275,0.0582,0;0.5;0,1,382.1334,1.0,712.0,-599.0,1,1
254,382.8873,-10764.9571,-10382.0698,10765.4740,383.4041,0.3001,383.7043,0.3668,275,0.05,-275,0.1171,0;0.5;0,0,383.3173,0.0,-663.0,-616.0,1,1
255,384.0711,-10766.1409,-10382.0698,10766.9246,384.8547,0.3001,385.1549,0.3668,-275,0,275,0.0029,0;0.5;0,1,384.7595,1.0,720.0,-589.0,1,1
256,385.5217,-10767.5915,-10382.0698,10768.2418,386.1719,0.3001,386.4720,0.3668,275,0,-275,0.0029,0;0.5;0,0,386.0851,0.0,-666.0,-608.0,1,1
257,386.8389,-10768.9087,-10382.0698,10769.3756,387.3057,0.3001,387.6058,0.3668,-275,0.0167,275,0.0402,0;0.5;0,1,387.2187,1.0,716.0,-595.0,1,1
258,387.9726,-10770.0425,-10382.0698,10770.4260,388.3561,0.3001,388.6563,0.3668,275,0.0088,-275,0.0323,0;0.5;0,0,388.2610,0.0,-662.0,-620.0,1,1
259,389.0231,-10771.0929,-10382.0698,10771.4264,389.3565,0.3001,389.6567,0.3668,-275,0.05,275,0.0582,0;0.5;0,1,389.2697,1.0,720.0,-594.0,1,1
260,390.0235,-10772.0933,-10382.0698,10772.5602,390.4903,0.3001,390.7904,0.3668,-275,0,275,0.0235,0;0.5;0,1,390.4035,1.0,716.0,-596.0,1,1
261,391.1573,-10773.2271,-10382.0698,10774.2275,392.1577,0.3001,392.4578,0.3668,275,0,-275,0.0029,0;0.5;0,0,392.0707,0.0,-660.0,-616.0,1,1
262,392.8246,-10774.8944,-10382.0698,10775.3446,393.2748,0.3001,393.5749,0.3668,275,0,-275,0.0235,0;0.5;0,0,393.1880,0.0,-661.0,-617.0,1,1
263,393.9417,-10776.0116,-10382.0698,10776.8119,394.7420,0.3001,395.0422,0.3668,275,0,-275,0.0029,0;0.5;0,0,394.6552,0.0,-660.0,-613.0,1,1
264,395.4090,-10777.4788,-10382.0698,10777.8790,395.8091,0.3001,396.1092,0.3668,-275,0.45,275,1,0;0.5;0,1,395.7224,1.0,713.0,-595.0,1,1
265,396.4761,-10778.5459,-10382.0698,10779.0294,396.9596,0.3001,397.2597,0.3668,275,0,-275,0.0235,0;0.5;0,0,396.8726,0.0,-659.0,-617.0,1,1
266,397.6265,-10779.6964,-10382.0698,10780.0465,397.9767,0.3001,398.2768,0.3668,-275,0.2,275,0.75,0;0.5;0,1,397.8814,1.0,713.0,-597.0,1,1
267,398.6436,-10780.7134,-10382.0698,10781.7472,399.6773,0.3001,399.9775,0.3668,-275,0,275,0.0029,1;0;0,1,399.5821,0.0,-661.0,-618.0,1,0
268,400.3443,-10782.4141,-10382.0698,10782.7809,400.7111,0.3001,401.0112,0.3668,-275,0.05,275,0.1171,0;0.5;0,1,400.6242,1.0,716.0,-593.0,1,1
269,401.3780,-10783.4479,-10382.0698,10783.9147,401.8449,0.3001,402.1450,0.3668,-275,0,275,0.0235,0;0.5;0,1,401.7580,1.0,714.0,-594.0,1,1
270,402.5118,-10784.5817,-10382.0698,10784.9485,402.8786,0.3001,403.1788,0.3668,275,0.0088,-275,0.0759,0;0.5;0,0,402.7919,0.0,-658.0,-615.0,1,1
271,403.5456,-10785.6154,-10382.0698,10785.9656,403.8957,0.3001,404.1958,0.3668,275,0.2,-275,0.3921,1;0;0,0,403.8006,1.0,711.0,-595.0,1,0
272,404.5626,-10786.6325,-10382.0698,10787.3995,405.3296,0.3001,405.6297,0.3668,275,0.05,-275,0.2421,0;0.5;0,0,405.2344,0.0,-656.0,-618.0,1,1
273,405.9966,-10788.0664,-10382.0698,10788.8334,406.7635,0.3001,407.0636,0.3668,275,0,-275,0.001,0;0.5;0,0,406.6766,0.0,-660.0,-611.0,1,1
274,407.4305,-10789.5003,-10382.0698,10790.0505,407.9807,0.3001,408.2808,0.3668,275,0,-275,0.0082,0;0.5;0,0,407.8854,0.0,-658.0,-613.0,1,1
275,408.6476,-10790.7175,-10382.0698,10791.1676,409.0978,0.3001,409.3979,0.3668,-275,0.0088,275,0.2009,0;0.5;0,1,409.0026,1.0,716.0,-584.0,1,1
276,409.7647,-10791.8346,-10382.0698,10792.4348,410.3650,0.3001,410.6651,0.3668,-275,0.2,275,1,0;0.5;0,1,410.2696,1.0,711.0,-593.0,1,1
277,411.0319,-10793.1017,-10382.0698,10793.7187,411.6488,0.3001,411.9489,0.3668,275,0.0088,-275,0.2009,0;0.5;0,0,411.5620,0.0,-659.0,-612.0,1,1
278,412.3158,-10794.3856,-10382.0698,10795.0692,412.9994,0.3001,413.2995,0.3668,-275,0.05,275,0.0529,0;0.5;0,1,412.9125,1.0,705.0,-591.0,1,1
279,413.6663,-10795.7361,-10382.0698,10796.6032,414.5333,0.3001,414.8334,0.3668,-275,0.0088,275,0.0098,0;0.5;0,1,414.4464,1.0,700.0,-596.0,1,1
280,415.2002,-10797.2701,-10382.0698,10797.8537,415.7838,0.3001,416.0839,0.3668,275,0.2,-275,0.2671,0;0.5;0,0,415.6971,0.0,-658.0,-611.0,1,1
281,416.4507,-10798.5206,-10382.0698,10799.2542,417.1844,0.3001,417.4845,0.3668,275,0.0088,-275,0.017,0;0.5;0,0,417.0975,0.0,-658.0,-613.0,1,1
282,417.8513,-10799.9212,-10382.0698,10800.5714,418.5016,0.3001,418.8017,0.3668,275,0.2,-275,0.2235,0;0.5;0,0,418.4147,0.0,-658.0,-609.0,1,1
283,419.1685,-10801.2383,-10382.0698,10801.9053,419.8354,0.3001,420.1356,0.3668,275,0.0088,-275,0.0117,0;0.5;0,0,419.7486,0.0,-656.0,-613.0,1,1
284,420.5024,-10802.5722,-10382.0698,10803.1224,421.0526,0.3001,421.3527,0.3668,-275,0,275,0.1921,0;0.5;0,1,420.9658,1.0,696.0,-601.0,1,1
285,421.7195,-10803.7894,-10382.0698,10804.2729,422.2031,0.3001,422.5032,0.3668,-275,0.2,275,0.3921,0;0.5;0,1,422.1162,1.0,697.0,-596.0,1,1
286,422.8700,-10804.9398,-10382.0698,10805.5067,423.4369,0.3001,423.7370,0.3668,275,0.45,-275,0.4582,0;0.5;0,0,423.3416,0.0,-656.0,-607.0,1,1
287,424.1038,-10806.1737,-10382.0698,10806.5238,424.4540,0.3001,424.7541,0.3668,-275,0.05,275,0.1171,0;0.5;0,1,424.3671,1.0,693.0,-601.0,1,1
288,425.1209,-10807.1907,-10382.0698,10807.6242,425.5544,0.3001,425.8545,0.3668,275,0.45,-275,1,0;0.5;0,0,425.4676,0.0,-653.0,-616.0,1,1
289,426.2213,-10808.2912,-10382.0698,10809.3416,427.2718,0.3001,427.5719,0.3668,-275,0,275,0.0029,1;0;0,1,427.1849,0.0,-657.0,-611.0,1,0
290,427.9387,-10810.0085,-10382.0698,10810.3754,428.3055,0.3001,428.6056,0.3668,-275,0.45,275,1,0;0.5;0,1,428.2103,1.0,697.0,-587.0,1,1
291,428.9724,-10811.0423,-10382.0698,10811.4424,429.3726,0.3001,429.6727,0.3668,275,0.0088,-275,0.0759,0;0.5;0,0,429.2859,0.0,-654.0,-611.0,1,1
292,430.0395,-10812.1094,-10382.0698,10812.4595,430.3897,0.3001,430.6898,0.3668,275,0.45,-275,0.4582,1;0;0,0,430.2944,1.0,696.0,-590.0,1,0
293,431.0566,-10813.1265,-10382.0698,10813.5766,431.5068,0.3001,431.8069,0.3668,275,0.05,-275,0.2421,0;0.5;0,0,431.4117,0.0,-655.0,-610.0,1,1
294,432.1737,-10814.2436,-10382.0698,10814.6271,432.5572,0.3001,432.8573,0.3668,-275,0.05,275,0.6,0;0.5;0,1,432.4619,1.0,697.0,-593.0,1,1
295,433.2241,-10815.2940,-10382.0698,10815.9276,433.8577,0.3001,434.1579,0.3668,-275,0.2,275,0.75,0;0.5;0,1,433.7709,1.0,682.0,-586.0,1,1
296,434.5247,-10816.5945,-10382.0698,10818.0618,435.9919,0.3001,436.2920,0.3668,275,0.0167,-275,0.0196,1;0;0,0,435.9051,1.0,669.0,-579.0,1,0
297,436.6589,-10818.7287,-10382.0698,10819.0788,437.0090,0.3001,437.3091,0.3668,275,0.45,-275,1,0;0.5;0,0,436.9223,0.0,-633.0,-623.0,1,1
298,437.6759,-10819.7458,-10382.0698,10820.2960,438.2262,0.3001,438.5263,0.3668,275,0.0088,-275,0.0323,0;0.5;0,0,438.1309,0.0,-635.0,-627.0,1,1
299,438.8931,-10820.9629,-10382.0698,10821.3631,439.2933,0.3001,439.5934,0.3668,275,0.0167,-275,0.0402,0;0.5;0,0,439.1982,0.0,-638.0,-627.0,1,1
300,439.9602,-10822.0300,-10382.0698,10822.4302,440.3603,0.3001,440.6605,0.3668,-275,0.2,275,0.75,0;0.5;0,1,440.2733,1.0,668.0,-597.0,1,1
301,441.0273,-10823.0971,-10382.0698,10823.6640,441.5942,0.3001,441.8943,0.3668,275,0.0167,-275,0.0402,0;0.5;0,0,441.5074,0.0,-635.0,-623.0,1,1
302,442.2611,-10824.3310,-10382.0698,10824.9645,442.8947,0.3001,443.1948,0.3668,275,0.0167,-275,0.0249,0;0.5;0,0,442.7996,0.0,-635.0,-623.0,1,1
303,443.5616,-10825.6315,-10382.0698,10826.4985,444.4286,0.3001,444.7288,0.3668,-275,0.45,275,0.4582,0;0.5;0,1,444.3418,1.0,671.0,-594.0,1,1
304,445.0956,-10827.1654,-10382.0698,10827.5989,445.5291,0.3001,445.8292,0.3668,275,0.0088,-275,0.0323,0;0.5;0,0,445.4339,0.0,-635.0,-632.0,1,1
305,446.1960,-10828.2659,-10382.0698,10828.7994,446.7296,0.3001,447.0297,0.3668,275,0.0088,-275,0.0323,0;0.5;0,0,446.6427,0.0,-633.0,-629.0,1,1
306,447.3965,-10829.4663,-10382.0698,10829.9832,447.9134,0.3001,448.2135,0.3668,275,0.45,-275,0.4582,0;0.5;0,0,447.8182,0.0,-633.0,-628.0,1,1
307,448.5803,-10830.6502,-10382.0698,10831.1837,449.1139,0.3001,449.4140,0.3668,-275,0.0167,275,0.0249,0;0.5;0,1,449.0270,1.0,675.0,-589.0,1,1
308,449.7808,-10831.8506,-10382.0698,10832.3342,450.2643,0.3001,450.5644,0.3668,-275,0.0167,275,0.0838,0;0.5;0,1,450.1691,1.0,673.0,-593.0,1,1
309,450.9313,-10833.0011,-10382.0698,10833.4346,451.3648,0.3001,451.6649,0.3668,-275,0.0167,275,0.0402,0;0.5;0,1,451.2779,1.0,675.0,-589.0,1,1
310,452.0317,-10834.1015,-10382.0698,10834.5684,452.4986,0.3001,452.7987,0.3668,275,0.45,-275,1,0;0.5;0,0,452.4118,0.0,-632.0,-631.0,1,1
311,453.1655,-10835.2353,-10382.0698,10835.5521,453.4823,0.3001,453.7824,0.3668,-275,0.45,275,0.5171,0;0.5;0,1,453.3869,1.0,674.0,-587.0,1,1
312,454.1492,-10836.2191,-10382.0698,10836.7860,454.7161,0.3001,455.0162,0.3668,-275,0.45,275,0.6421,0;0.5;0,1,454.6209,1.0,674.0,-586.0,1,1
313,455.3830,-10837.4529,-10382.0698,10838.0031,455.9333,0.3001,456.2334,0.3668,-275,0.45,275,0.4582,1;0;0,1,455.8380,0.0,-631.0,-628.0,1,0
314,456.6002,-10838.6700,-10382.0698,10839.3370,457.2671,0.3001,457.5673,0.3668,-275,0.0167,275,0.0249,0;0.5;0,1,457.1718,1.0,675.0,-582.0,1,1
315,457.9341,-10840.0039,-10382.0698,10841.9547,459.8848,0.3001,460.1850,0.3668,-275,0.0088,275,0.0323,0;0.5;0,1,459.7979,1.0,672.0,-588.0,1,1
316,460.5518,-10842.6216,-10382.0698,10843.2719,461.2020,0.3001,461.5022,0.3668,275,0.05,-275,0.0582,0;0.5;0,0,461.1067,0.0,-630.0,-631.0,1,1
317,461.8690,-10843.9388,-10382.0698,10844.3390,462.2691,0.3001,462.5693,0.3668,-275,0.05,275,0.2421,0;0.5;0,1,462.1823,1.0,678.0,-584.0,1,1
318,462.9361,-10845.0059,-10382.0698,10845.5228,463.4529,0.3001,463.7531,0.3668,-275,0.0088,275,0.0323,0;0.5;0,1,463.3577,1.0,677.0,-581.0,1,1
319,464.1199,-10846.1897,-10382.0698,10846.7233,464.6534,0.3001,464.9536,0.3668,-275,0.45,275,0.5171,1;0;0,1,464.5666,0.0,-627.0,-623.0,1,0
320,465.3204,-10847.3902,-10382.0698,10847.9738,465.9039,0.3001,466.2041,0.3668,275,0.0088,-275,0.0098,1;0;0,0,465.8086,1.0,678.0,-578.0,1,0
321,466.5709,-10848.6407,-10382.0698,10849.7578,467.6880,0.3001,467.9881,0.3668,275,0,-275,0.0235,0;0.5;0,0,467.6010,0.0,-633.0,-632.0,1,1
322,468.3549,-10850.4248,-10382.0698,10851.0583,468.9885,0.3001,469.2886,0.3668,-275,0,275,0.1921,0;0.5;0,1,468.9016,1.0,663.0,-600.0,1,1
323,469.6554,-10851.7253,-10382.0698,10852.0921,470.0223,0.3001,470.3224,0.3668,275,0.45,-275,1,0;0.5;0,0,469.9269,0.0,-630.0,-633.0,1,1
324,470.6892,-10852.7590,-10382.0698,10853.2426,471.1727,0.3001,471.4728,0.3668,275,0.0088,-275,0.0323,0;0.5;0,0,471.0860,0.0,-629.0,-631.0,1,1
325,471.8396,-10853.9095,-10382.0698,10854.3097,472.2398,0.3001,472.5399,0.3668,-275,0,275,0.0671,0;0.5;0,1,472.1446,1.0,669.0,-586.0,1,1
326,472.9067,-10854.9766,-10382.0698,10855.4768,473.4069,0.3001,473.7071,0.3668,-275,0.05,275,0.6,0;0.5;0,1,473.3201,1.0,667.0,-591.0,1,1
327,474.0739,-10856.1437,-10382.0698,10856.6439,474.5741,0.3001,474.8742,0.3668,275,0.45,-275,0.6421,0;0.5;0,0,474.4871,0.0,-625.0,-637.0,1,1
328,475.2410,-10857.3109,-10382.0698,10857.8944,475.8246,0.3001,476.1247,0.3668,275,0.45,-275,0.4735,0;0.5;0,0,475.7293,0.0,-628.0,-637.0,1,1
329,476.4915,-10858.5614,-10382.0698,10859.2450,477.1751,0.3001,477.4752,0.3668,275,0.05,-275,0.0735,1;0;0,0,477.0883,1.0,666.0,-591.0,1,0
330,477.8421,-10859.9119,-10382.0698,10860.5121,478.4423,0.3001,478.7424,0.3668,-275,0.0088,275,0.0117,1;0;0,1,478.3471,0.0,-629.0,-638.0,1,0
331,479.1092,-10861.1791,-10382.0698,10861.7793,479.7095,0.3001,480.0096,0.3668,-275,0.0167,275,0.0196,0;0.5;0,1,479.6143,1.0,669.0,-582.0,1,1
332,480.3764,-10862.4462,-10382.0698,10863.2466,481.1767,0.3001,481.4768,0.3668,275,0,-275,0.0029,1;0;0,0,481.0897,1.0,672.0,-575.0,1,0
333,481.8437,-10863.9135,-10382.0698,10865.8143,483.7444,0.3001,484.0445,0.3668,275,0,-275,0.0671,0;0.5;0,0,483.6575,0.0,-604.0,-645.0,1,1
334,484.4114,-10866.4812,-10382.0698,10867.1648,485.0950,0.3001,485.3951,0.3668,275,0.0167,-275,0.0249,0;0.5;0,0,485.0081,0.0,-602.0,-642.0,1,1
335,485.7619,-10867.8317,-10382.0698,10868.3153,486.2454,0.3001,486.5455,0.3668,275,0,-275,0.001,0;0.5;0,0,486.1501,0.0,-610.0,-642.0,1,1
336,486.9124,-10868.9822,-10382.0698,10869.5658,487.4959,0.3001,487.7960,0.3668,275,0.2,-275,0.3921,0;0.5;0,0,487.4091,0.0,-606.0,-640.0,1,1
337,488.1629,-10870.2327,-10382.0698,10870.6495,488.5797,0.3001,488.8798,0.3668,275,0.05,-275,0.6,0;0.5;0,0,488.4930,0.0,-605.0,-637.0,1,1
338,489.2466,-10871.3165,-10382.0698,10871.7166,489.6468,0.3001,489.9469,0.3668,-275,0,275,0.0671,0;0.5;0,1,489.5599,1.0,661.0,-584.0,1,1
339,490.3137,-10872.3836,-10382.0698,10873.0338,490.9640,0.3001,491.2641,0.3668,-275,0.2,275,0.2235,0;0.5;0,1,490.8771,1.0,639.0,-578.0,1,1
340,491.6309,-10873.7008,-10382.0698,10874.3510,492.2812,0.3001,492.5813,0.3668,275,0.45,-275,0.6421,0;0.5;0,0,492.1944,0.0,-606.0,-640.0,1,1
341,492.9481,-10875.0180,-10382.0698,10875.6182,493.5484,0.3001,493.8485,0.3668,-275,0,275,0.001,1;0;0,1,493.4531,0.0,-609.0,-637.0,1,0
342,494.2153,-10876.2851,-10382.0698,10876.7020,494.6321,0.3001,494.9322,0.3668,-275,0.0167,275,0.0402,0;0.5;0,1,494.5370,1.0,639.0,-576.0,1,1
343,495.2991,-10877.3689,-10382.0698,10877.7691,495.6992,0.3001,495.9993,0.3668,275,0.0088,-275,0.0323,0;0.5;0,0,495.6040,0.0,-613.0,-639.0,1,1
344,496.3662,-10878.4360,-10382.0698,10879.2863,497.2165,0.3001,497.5166,0.3668,-275,0.2,275,0.2082,0;0.5;0,1,497.1212,1.0,637.0,-582.0,1,1
345,497.8834,-10879.9533,-10382.0698,10880.5702,498.5003,0.3001,498.8005,0.3668,275,0.0167,-275,0.0249,0;0.5;0,0,498.4135,0.0,-611.0,-643.0,1,1
346,499.1673,-10881.2371,-10382.0698,10882.9378,500.8680,0.3001,501.1681,0.3668,-275,0.2,275,0.3921,0;0.5;0,1,500.7727,1.0,620.0,-589.0,1,1
347,501.5349,-10883.6047,-10382.0698,10884.7719,502.7020,0.3001,503.0022,0.3668,275,0.0167,-275,0.0249,0;0.5;0,0,502.6152,0.0,-612.0,-642.0,1,1
348,503.3690,-10885.4388,-10382.0698,10886.0557,503.9859,0.3001,504.2860,0.3668,275,0.2,-275,0.75,0;0.5;0,0,503.8989,0.0,-608.0,-646.0,1,1
349,504.6528,-10886.7227,-10382.0698,10887.5230,505.4531,0.3001,505.7533,0.3668,-275,0.0088,275,0.0098,1;0;0,1,505.3579,0.0,-610.0,-638.0,1,0
350,506.1201,-10888.1899,-10382.0698,10888.7068,506.6369,0.3001,506.9371,0.3668,-275,0,275,0.0235,0;0.5;0,1,506.5501,1.0,641.0,-584.0,1,1
351,507.3039,-10889.3737,-10382.0698,10889.6738,507.6040,0.3001,507.9041,0.3668,275,0.45,-275,0.5171,0;0.5;0,0,507.5088,0.0,-612.0,-643.0,1,1
352,508.2709,-10890.3408,-10382.0698,10891.0411,508.9712,0.3001,509.2713,0.3668,-275,0.0167,275,0.0177,0;0.5;0,1,508.8760,1.0,644.0,-576.0,1,1
353,509.6381,-10891.7080,-10382.0698,10892.3416,510.2717,0.3001,510.5719,0.3668,275,0.2,-275,0.2082,1;0;0,0,510.1766,1.0,649.0,-575.0,1,0
354,510.9387,-10893.0085,-10382.0698,10893.6754,511.6056,0.3001,511.9057,0.3668,275,0.0167,-275,0.0249,1;0;0,0,511.5102,1.0,650.0,-570.0,1,0
355,512.2725,-10894.3424,-10382.0698,10895.0093,512.9395,0.3001,513.2396,0.3668,275,0.2,-275,0.2671,1;0;0,0,512.8526,1.0,645.0,-578.0,1,0
356,513.6064,-10895.6762,-10382.0698,10896.3265,514.2567,0.3001,514.5568,0.3668,-275,0.0167,275,0.0196,1;0;0,1,514.1698,0.0,-611.0,-641.0,1,0
357,514.9236,-10896.9934,-10382.0698,10897.7771,515.7072,0.3001,516.0074,0.3668,275,0.2,-275,0.2235,1;0;0,0,515.6120,1.0,647.0,-572.0,1,0
358,516.3742,-10898.4440,-10382.0698,10899.2110,517.1412,0.3001,517.4413,0.3668,275,0.05,-275,0.0735,1;0;0,0,517.0459,1.0,649.0,-571.0,1,0
359,517.8081,-10899.8779,-10382.0698,10900.5615,518.4917,0.3001,518.7918,0.3668,-275,0.05,275,0.1171,0;0.5;0,1,518.3964,1.0,651.0,-571.0,1,1
360,519.1586,-10901.2285,-10382.0698,10901.8787,519.8089,0.3001,520.1090,0.3668,275,0.05,-275,0.0529,1;0;0,0,519.7137,1.0,646.0,-570.0,1,0
361,520.4758,-10902.5457,-10382.0698,10903.0125,520.9427,0.3001,521.2428,0.3668,275,0.0167,-275,0.2088,0;0.5;0,0,520.8559,0.0,-608.0,-637.0,1,1
362,521.6096,-10903.6795,-10382.0698,10904.2297,522.1598,0.3001,522.4600,0.3668,-275,0.2,275,0.2671,0;0.5;0,1,522.0646,1.0,642.0,-577.0,1,1
363,522.8268,-10904.8966,-10382.0698,10905.3801,523.3103,0.3001,523.6104,0.3668,275,0.0088,-275,0.2009,0;0.5;0,0,523.2152,0.0,-611.0,-641.0,1,1
364,523.9772,-10906.0471,-10382.0698,10906.7474,524.6775,0.3001,524.9776,0.3668,-275,0.0088,275,0.017,0;0.5;0,1,524.5823,1.0,647.0,-572.0,1,1
365,525.3444,-10907.4143,-10382.0698,10907.8478,525.7780,0.3001,526.0781,0.3668,-275,0.05,275,0.6,0;0.5;0,1,525.6826,1.0,642.0,-580.0,1,1
366,526.4449,-10908.5147,-10382.0698,10908.9816,526.9117,0.3001,527.2119,0.3668,275,0.05,-275,0.2421,0;0.5;0,0,526.8166,0.0,-610.0,-643.0,1,1
367,527.5787,-10909.6485,-10382.0698,10910.0487,527.9788,0.3001,528.2790,0.3668,275,0.0167,-275,0.0838,0;0.5;0,0,527.8919,0.0,-611.0,-637.0,1,1
368,528.6458,-10910.7156,-10382.0698,10911.3826,529.3127,0.3001,529.6128,0.3668,-275,0.0167,275,0.0196,0;0.5;0,1,529.2174,1.0,640.0,-577.0,1,1
369,529.9796,-10912.0495,-10382.0698,10912.6997,530.6299,0.3001,530.9300,0.3668,275,0.2,-275,0.3921,0;0.5;0,0,530.5430,0.0,-606.0,-632.0,1,1
370,531.2968,-10913.3667,-10382.0698,10913.9002,531.8304,0.3001,532.1305,0.3668,-275,0.05,275,0.0529,0;0.5;0,1,531.7435,1.0,635.0,-586.0,1,1
371,532.4973,-10914.5672,-10382.0698,10915.0173,532.9475,0.3001,533.2476,0.3668,275,0,-275,0.0671,0;0.5;0,0,532.8525,0.0,-610.0,-637.0,1,1
372,533.6144,-10915.6843,-10382.0698,10916.2178,534.1480,0.3001,534.4481,0.3668,275,0.05,-275,0.0582,1;0;0,0,534.0527,1.0,643.0,-576.0,1,0
373,534.8149,-10916.8848,-10382.0698,10917.7518,535.6819,0.3001,535.9820,0.3668,-275,0.0088,275,0.017,0;0.5;0,1,535.5866,1.0,648.0,-572.0,1,1
374,536.3489,-10918.4187,-10382.0698,10919.1023,537.0325,0.3001,537.3326,0.3668,-275,0.0088,275,0.0759,0;0.5;0,1,536.9457,1.0,632.0,-597.0,1,1
375,537.6994,-10919.7692,-10382.0698,10920.2694,538.1996,0.3001,538.4997,0.3668,275,0.2,-275,0.75,0;0.5;0,0,538.1125,0.0,-607.0,-634.0,1,1
376,538.8665,-10920.9364,-10382.0698,10921.5200,539.4501,0.3001,539.7502,0.3668,-275,0.2,275,0.2671,0;0.5;0,1,539.3632,1.0,632.0,-599.0,1,1
377,540.1170,-10922.1869,-10382.0698,10922.8038,540.7340,0.3001,541.0341,0.3668,-275,0.0167,275,0.0838,0;0.5;0,1,540.6472,1.0,637.0,-589.0,1,1
378,541.4009,-10923.4707,-10382.0698,10924.7212,542.6514,0.3001,542.9515,0.3668,-275,0.45,275,0.4582,0;0.5;0,1,542.5562,1.0,638.0,-590.0,1,1
379,543.3183,-10925.3882,-10382.0698,10926.7220,544.6522,0.3001,544.9523,0.3668,275,0.0088,-275,0.0098,0;0.5;0,0,544.5570,0.0,-608.0,-634.0,1,1
380,545.3191,-10927.3890,-10382.0698,10927.9892,545.9194,0.3001,546.2195,0.3668,-275,0.0088,275,0.0098,0;0.5;0,1,545.8241,1.0,639.0,-578.0,1,1
381,546.5863,-10928.6561,-10382.0698,10929.2731,547.2032,0.3001,547.5033,0.3668,-275,0.45,275,1,0;0.5;0,1,547.1163,1.0,639.0,-598.0,1,1
382,547.8702,-10929.9400,-10382.0698,10931.1905,549.1207,0.3001,549.4208,0.3668,275,0,-275,0.0671,0;0.5;0,0,549.0337,0.0,-611.0,-642.0,1,1
383,549.7876,-10931.8574,-10382.0698,10932.6911,550.6213,0.3001,550.9214,0.3668,275,0.05,-275,0.1171,0;0.5;0,0,550.5260,0.0,-610.0,-637.0,1,1
384,551.2882,-10933.3580,-10382.0698,10933.8582,551.7884,0.3001,552.0885,0.3668,-275,0.0088,275,0.0323,0;0.5;0,1,551.7016,1.0,634.0,-594.0,1,1
385,552.4553,-10934.5252,-10382.0698,10935.1087,553.0389,0.3001,553.3390,0.3668,275,0.0088,-275,0.017,0;0.5;0,0,552.9436,0.0,-610.0,-637.0,1,1
386,553.7058,-10935.7757,-10382.0698,10936.2259,554.1560,0.3001,554.4561,0.3668,-275,0.0167,275,0.2088,0;0.5;0,1,554.0691,1.0,639.0,-586.0,1,1
387,554.8229,-10936.8928,-10382.0698,10937.4263,555.3565,0.3001,555.6566,0.3668,275,0.0088,-275,0.0098,0;0.5;0,0,555.2697,0.0,-609.0,-638.0,1,1
388,556.0234,-10938.0933,-10382.0698,10938.7102,556.6403,0.3001,556.9405,0.3668,275,0.0088,-275,0.017,0;0.5;0,0,556.5451,0.0,-606.0,-633.0,1,1
389,557.3073,-10939.3771,-10382.0698,10940.0440,557.9742,0.3001,558.2743,0.3668,-275,0,275,0.001,0;0.5;0,1,557.8790,1.0,644.0,-578.0,1,1
390,558.6411,-10940.7110,-10382.0698,10941.7447,559.6749,0.3001,559.9750,0.3668,275,0.45,-275,0.4582,0;0.5;0,0,559.5880,0.0,-608.0,-632.0,1,1
391,560.3418,-10942.4117,-10382.0698,10942.7618,560.6920,0.3001,560.9921,0.3668,-275,0.0088,275,0.0759,0;0.5;0,1,560.6051,1.0,634.0,-592.0,1,1
392,561.3589,-10943.4287,-10382.0698,10943.7622,561.6924,0.3001,561.9925,0.3668,275,0.0167,-275,0.0838,0;0.5;0,0,561.6055,0.0,-607.0,-637.0,1,1
393,562.3593,-10944.4291,-10382.0698,10944.9127,562.8428,0.3001,563.1429,0.3668,275,0.2,-275,1,0;0.5;0,0,562.7559,0.0,-608.0,-636.0,1,1
394,563.5098,-10945.5796,-10382.0698,10946.1298,564.0600,0.3001,564.3601,0.3668,275,0.0088,-275,0.0098,0;0.5;0,0,563.9647,0.0,-612.0,-635.0,1,1
395,564.7269,-10946.7968,-10382.0698,10947.2970,565.2271,0.3001,565.5272,0.3668,275,0.2,-275,1,0;0.5;0,0,565.1319,0.0,-609.0,-628.0,1,1
396,565.8940,-10947.9639,-10382.0698,10948.3807,566.3109,0.3001,566.6110,0.3668,275,0.05,-275,0.6,0;0.5;0,0,566.2241,0.0,-613.0,-632.0,1,1
397,566.9778,-10949.0477,-10382.0698,10949.6146,567.5447,0.3001,567.8448,0.3668,275,0.05,-275,0.0735,0;0.5;0,0,567.4494,0.0,-610.0,-631.0,1,1
398,568.2116,-10950.2815,-10382.0698,10950.7317,568.6618,0.3001,568.9619,0.3668,-275,0.2,275,0.75,0;0.5;0,1,568.5748,1.0,635.0,-584.0,1,1
399,569.3288,-10951.3986,-10382.0698,10951.8821,569.8123,0.3001,570.1124,0.3668,275,0.45,-275,0.4735,0;0.5;0,0,569.7171,0.0,-612.0,-630.0,1,1
400,570.4792,-10952.5491,-10382.0698,10952.8825,570.8127,0.3001,571.1128,0.3668,-275,0.45,275,0.5171,0;0.5;0,1,570.7258,1.0,632.0,-589.0,1,1
401,571.4796,-10953.5495,-10382.0698,10954.2331,572.1632,0.3001,572.4633,0.3668,-275,0.45,275,0.4582,0;0.5;0,1,572.0679,1.0,639.0,-571.0,1,1
402,572.8302,-10954.9000,-10382.0698,10955.3335,573.2637,0.3001,573.5638,0.3668,-275,0.05,275,0.2421,0;0.5;0,1,573.1684,1.0,636.0,-578.0,1,1
403,573.9306,-10956.0004,-10382.0698,10957.0509,574.9810,0.3001,575.2811,0.3668,-275,0.0088,275,0.0098,1;0;0,1,574.8942,0.0,-612.0,-629.0,1,0
404,575.6480,-10957.7178,-10382.0698,10958.0846,576.0148,0.3001,576.3149,0.3668,-275,0.05,275,0.0529,0;0.5;0,1,575.9196,1.0,640.0,-565.0,1,1
405,576.6817,-10958.7516,-10382.0698,10959.2684,577.1986,0.3001,577.4987,0.3668,275,0.0167,-275,0.0177,1;0;0,0,577.1117,1.0,643.0,-561.0,1,0
406,577.8655,-10959.9354,-10382.0698,10960.7190,578.6492,0.3001,578.9493,0.3668,275,0.05,-275,0.2421,0;0.5;0,0,578.5538,0.0,-609.0,-628.0,1,1
407,579.3161,-10961.3859,-10382.0698,10961.8528,579.7830,0.3001,580.0831,0.3668,275,0.0167,-275,0.2088,0;0.5;0,0,579.6961,0.0,-611.0,-626.0,1,1
408,580.4499,-10962.5197,-10382.0698,10963.2867,581.2169,0.3001,581.5170,0.3668,275,0.0088,-275,0.0117,0;0.5;0,0,581.1301,0.0,-612.0,-625.0,1,1
409,581.8838,-10963.9536,-10382.0698,10964.8040,582.7341,0.3001,583.0343,0.3668,-275,0,275,0.001,1;0;0,1,582.6389,0.0,-608.0,-624.0,1,0
410,583.4011,-10965.4709,-10382.0698,10966.1545,584.0847,0.3001,584.3848,0.3668,275,0.05,-275,0.0529,1;0;0,0,583.9978,1.0,624.0,-579.0,1,0
411,584.7516,-10966.8215,-10382.0698,10967.5718,585.5019,0.3001,585.8020,0.3668,-275,0.2,275,0.3921,0;0.5;0,1,585.4067,1.0,620.0,-591.0,1,1
412,586.1688,-10968.2387,-10382.0698,10968.5888,586.5190,0.3001,586.8191,0.3668,275,0.2,-275,1,0;0.5;0,0,586.4321,0.0,-607.0,-628.0,1,1
413,587.1859,-10969.2558,-10382.0698,10970.3896,588.3197,0.3001,588.6198,0.3668,275,0,-275,0.0082,1;0;0,0,588.2327,1.0,626.0,-567.0,1,0
414,588.9866,-10971.0565,-10382.0698,10971.7401,589.6703,0.3001,589.9704,0.3668,-275,0.45,275,1,0;0.5;0,1,589.5750,1.0,620.0,-582.0,1,1
415,590.3372,-10972.4070,-10382.0698,10974.4245,592.3547,0.3001,592.6548,0.3668,-275,0,275,0.0082,1;0;0,1,592.2678,0.0,-596.0,-623.0,1,0
416,593.0216,-10975.0914,-10382.0698,10975.6417,593.5718,0.3001,593.8719,0.3668,275,0.0167,-275,0.0402,0;0.5;0,0,593.4849,0.0,-601.0,-616.0,1,1
417,594.2388,-10976.3086,-10382.0698,10976.8255,594.7556,0.3001,595.0557,0.3668,-275,0.0167,275,0.0196,0;0.5;0,1,594.6604,1.0,624.0,-576.0,1,1
418,595.4226,-10977.4924,-10382.0698,10977.9593,595.8894,0.3001,596.1895,0.3668,275,0,-275,0.0082,0;0.5;0,0,595.8025,0.0,-599.0,-618.0,1,1
419,596.5563,-10978.6262,-10382.0698,10979.0930,597.0232,0.3001,597.3233,0.3668,-275,0.0167,275,0.0402,0;0.5;0,1,596.9280,1.0,624.0,-571.0,1,1
420,597.6901,-10979.7600,-10382.0698,10980.3769,598.3070,0.3001,598.6072,0.3668,-275,0.0167,275,0.0177,0;0.5;0,1,598.2117,1.0,610.0,-569.0,1,1
421,598.9740,-10981.0438,-10382.0698,10981.4607,599.3908,0.3001,599.6909,0.3668,275,0.0088,-275,0.2009,0;0.5;0,0,599.3040,0.0,-586.0,-628.0,1,1
422,600.0578,-10982.1276,-10382.0698,10982.7445,600.6747,0.3001,600.9748,0.3668,-275,0,275,0.0082,0;0.5;0,1,600.5794,1.0,610.0,-578.0,1,1
423,601.3416,-10983.4114,-10382.0698,10983.8950,601.8251,0.3001,602.1252,0.0000,275,0.0167,-275,0.0196,1;0;0,0,601.7383,1.0,618.0,-572.0,1,0
424,602.1252,-10984.1951,-10382.0698,10984.6119,602.5421,0.3001,602.8422,0.3668,-275,0.0088,275,0.0117,1;0;0,1,602.4471,0.0,-594.0,-624.0,1,0
425,603.2090,-10985.2789,-10382.0698,10985.7957,603.7259,0.3001,604.0260,0.3668,-275,0.05,275,0.0529,0;0.5;0,1,603.6306,1.0,615.0,-583.0,1,1
426,604.3928,-10986.4627,-10382.0698,10986.9462,604.8763,0.3001,605.1765,0.3668,-275,0.05,275,0.0582,0;0.5;0,1,604.7895,1.0,605.0,-576.0,1,1
427,605.5433,-10987.6131,-10382.0698,10988.3468,606.2769,0.3001,606.5770,0.3668,-275,0.2,275,0.75,0;0.5;0,1,606.1900,1.0,588.0,-572.0,1,1
428,606.9438,-10989.0137,-10382.0698,10989.4972,607.4274,0.3001,607.7275,0.3668,275,0.0088,-275,0.0117,0;0.5;0,0,607.3405,0.0,-596.0,-623.0,1,1
429,608.0943,-10990.1642,-10382.0698,10990.7811,608.7112,0.3001,609.0113,0.3668,275,0.0167,-275,0.0196,0;0.5;0,0,608.6160,0.0,-594.0,-618.0,1,1
430,609.3782,-10991.4480,-10382.0698,10992.1149,610.0451,0.3001,610.3452,0.3668,275,0.0167,-275,0.0249,1;0;0,0,609.9583,1.0,605.0,-567.0,1,0
431,610.7120,-10992.7819,-10382.0698,10993.1987,611.1289,0.3001,611.4290,0.3668,275,0,-275,0.0235,0;0.5;0,0,611.0335,0.0,-596.0,-621.0,1,1
432,611.7958,-10993.8656,-10382.0698,10994.6660,612.5961,0.3001,612.8962,0.3668,275,0.05,-275,0.0582,1;0;0,0,612.5092,1.0,601.0,-570.0,1,0
433,613.2630,-10995.3329,-10382.0698,10995.8664,613.7966,0.3001,614.0967,0.3668,-275,0.45,275,0.6421,0;0.5;0,1,613.7097,1.0,600.0,-570.0,1,1
434,614.4635,-10996.5334,-10382.0698,10997.3170,615.2472,0.3001,615.5473,0.3668,-275,0.0088,275,0.0759,0;0.5;0,1,615.1520,1.0,602.0,-572.0,1,1
435,615.9141,-10997.9840,-10382.0698,10998.3674,616.2976,0.3001,616.5977,0.3668,275,0.0167,-275,0.2088,0;0.5;0,0,616.2108,0.0,-597.0,-622.0,1,1
436,616.9645,-10999.0344,-10382.0698,10999.6013,617.5314,0.3001,617.8315,0.3668,275,0.45,-275,0.6421,0;0.5;0,0,617.4362,0.0,-595.0,-618.0,1,1
437,618.1984,-11000.2682,-10382.0698,11000.8851,618.8153,0.3001,619.1154,0.3668,-275,0.05,275,0.6,0;0.5;0,1,618.7283,1.0,596.0,-585.0,1,1
438,619.4822,-11001.5521,-10382.0698,11001.9522,619.8824,0.3001,620.1825,0.3668,275,0.05,-275,0.6,0;0.5;0,0,619.7956,0.0,-596.0,-625.0,1,1
439,620.5493,-11002.6191,-10382.0698,11003.1694,621.0995,0.3001,621.3996,0.3668,275,0.0167,-275,0.0838,0;0.5;0,0,621.0127,0.0,-596.0,-621.0,1,1
440,621.7665,-11003.8363,-10382.0698,11004.5032,622.4334,0.3001,622.7335,0.3668,275,0.0088,-275,0.0117,0;0.5;0,0,622.3381,0.0,-600.0,-620.0,1,1
441,623.1003,-11005.1702,-10382.0698,11005.9205,623.8506,0.3001,624.1507,0.3668,275,0.0088,-275,0.0098,0;0.5;0,0,623.7636,0.0,-598.0,-618.0,1,1
442,624.5176,-11006.5874,-10382.0698,11007.0709,625.0011,0.3001,625.3012,0.3668,275,0.45,-275,1,0;0.5;0,0,624.9059,0.0,-598.0,-616.0,1,1
443,625.6680,-11007.7379,-10382.0698,11008.1714,626.1015,0.3001,626.4016,0.3668,275,0,-275,0.1921,0;0.5;0,0,626.0063,0.0,-601.0,-620.0,1,1
444,626.7685,-11008.8383,-10382.0698,11009.3385,627.2687,0.3001,627.5688,0.3668,275,0.45,-275,0.6421,0;0.5;0,0,627.1817,0.0,-600.0,-619.0,1,1
445,627.9356,-11010.0054,-10382.0698,11010.5557,628.4858,0.3001,628.7859,0.3668,-275,0.45,275,0.6421,0;0.5;0,1,628.3906,1.0,592.0,-584.0,1,1
446,629.1528,-11011.2226,-10382.0698,11011.8729,629.8030,0.3001,630.1031,0.3668,275,0.2,-275,0.2235,0;0.5;0,0,629.7078,0.0,-596.0,-618.0,1,1
447,630.4699,-11012.5398,-10382.0698,11013.0233,630.9535,0.3001,631.2536,0.3668,-275,0,275,0.1921,0;0.5;0,1,630.8665,1.0,597.0,-576.0,1,1
448,631.6204,-11013.6903,-10382.0698,11014.0237,631.9539,0.3001,632.2540,0.3668,275,0,-275,0.1921,0;0.5;0,0,631.8586,0.0,-597.0,-623.0,1,1
449,632.6208,-11014.6907,-10382.0698,11015.0908,633.0210,0.3001,633.3211,0.3668,-275,0.05,275,0.0529,0;0.5;0,1,632.9257,1.0,597.0,-584.0,1,1
450,633.6879,-11015.7577,-10382.0698,11016.3080,634.2381,0.3001,634.5382,0.3668,-275,0,275,0.001,1;0;0,1,634.1430,0.0,-601.0,-620.0,1,0
451,634.9051,-11016.9749,-10382.0698,11017.4251,635.3552,0.3001,635.6554,0.3668,275,0.0167,-275,0.0177,1;0;0,0,635.2601,1.0,608.0,-561.0,1,0
452,636.0222,-11018.0920,-10382.0698,11018.7590,636.6891,0.3001,636.9892,0.3668,-275,0.05,275,0.0582,0;0.5;0,1,636.5938,1.0,597.0,-570.0,1,1
453,637.3560,-11019.4259,-10382.0698,11020.1762,638.1063,0.3001,638.4065,0.3668,-275,0.45,275,0.4735,0;0.5;0,1,638.0195,1.0,589.0,-575.0,1,1
454,638.7733,-11020.8431,-10382.0698,11021.2766,639.2068,0.3001,639.5069,0.3668,275,0.0088,-275,0.2009,0;0.5;0,0,639.1198,0.0,-599.0,-614.0,1,1
455,639.8737,-11021.9436,-10382.0698,11022.5438,640.4740,0.3001,640.7741,0.3668,-275,0.0167,275,0.0196,0;0.5;0,1,640.3871,1.0,596.0,-566.0,1,1
456,641.1409,-11023.2107,-10382.0698,11023.7610,641.6911,0.3001,641.9912,0.3668,-275,0.0167,275,0.0196,0;0.5;0,1,641.5960,1.0,601.0,-556.0,1,1
457,642.3580,-11024.4279,-10382.0698,11025.0115,642.9416,0.3001,643.2417,0.3668,275,0.05,-275,0.0582,1;0;0,0,642.8547,1.0,596.0,-560.0,1,0
458,643.6085,-11025.6784,-10382.0698,11026.2620,644.1921,0.3001,644.4922,0.3668,-275,0.2,275,0.2235,0;0.5;0,1,644.1052,1.0,596.0,-558.0,1,1
459,644.8590,-11026.9289,-10382.0698,11027.3957,645.3259,0.3001,645.6260,0.3668,-275,0.2,275,0.75,0;0.5;0,1,645.2390,1.0,594.0,-565.0,1,1
460,645.9928,-11028.0627,-10382.0698,11028.4962,646.4263,0.3001,646.7265,0.3668,-275,0.05,275,0.1171,0;0.5;0,1,646.3311,1.0,594.0,-565.0,1,1
461,647.0933,-11029.1631,-10382.0698,11029.7467,647.6768,0.3001,647.9770,0.3668,-275,0.45,275,0.4735,1;0;0,1,647.5817,0.0,-601.0,-610.0,1,0
462,648.3438,-11030.4136,-10382.0698,11031.5808,649.5109,0.3001,649.8110,0.3668,275,0,-275,0.001,1;0;0,0,649.4240,1.0,593.0,-563.0,1,0
463,650.1778,-11032.2477,-10382.0698,11033.2147,651.1449,0.3001,651.4450,0.3668,275,0.0167,-275,0.0402,0;0.5;0,0,651.0498,0.0,-597.0,-613.0,1,1
464,651.8118,-11033.8817,-10382.0698,11034.3485,652.2787,0.3001,652.5788,0.3668,275,0.0088,-275,0.0759,0;0.5;0,0,652.1918,0.0,-600.0,-613.0,1,1
465,652.9456,-11035.0155,-10382.0698,11035.5323,653.4625,0.3001,653.7626,0.3668,-275,0,275,0.0235,0;0.5;0,1,653.3673,1.0,588.0,-572.0,1,1
466,654.1294,-11036.1993,-10382.0698,11036.6661,654.5963,0.3001,654.8964,0.3668,275,0.05,-275,0.2421,0;0.5;0,0,654.5093,0.0,-601.0,-617.0,1,1
467,655.2632,-11037.3331,-10382.0698,11037.8499,655.7801,0.3001,656.0802,0.3668,275,0.05,-275,0.0582,1;0;0,0,655.6849,1.0,590.0,-570.0,1,0
468,656.4470,-11038.5169,-10382.0698,11038.8670,656.7972,0.3001,657.0973,0.3668,275,0.2,-275,0.75,0;0.5;0,0,656.7019,0.0,-599.0,-611.0,1,1
469,657.4641,-11039.5339,-10382.0698,11039.9341,657.8643,0.3001,658.1644,0.3668,275,0.05,-275,0.2421,0;0.5;0,0,657.7773,0.0,-599.0,-613.0,1,1
470,658.5312,-11040.6010,-10382.0698,11040.9845,658.9147,0.3001,659.2148,0.3668,-275,0.2,275,1,0;0.5;0,1,658.8194,1.0,596.0,-560.0,1,1
471,659.5816,-11041.6515,-10382.0698,11041.9516,659.8817,0.3001,660.1819,0.3668,275,0.2,-275,1,0;0.5;0,0,659.7866,0.0,-601.0,-613.0,1,1
472,660.5487,-11042.6185,-10382.0698,11043.3355,661.2656,0.3001,661.5657,0.3668,-275,0.0088,275,0.0117,1;0;0,1,661.1787,0.0,-603.0,-614.0,1,0
473,661.9326,-11044.0024,-10382.0698,11044.3359,662.2660,0.3001,662.5661,0.3668,-275,0.0167,275,0.2088,0;0.5;0,1,662.1791,1.0,600.0,-547.0,1,1
474,662.9330,-11045.0028,-10382.0698,11045.4697,663.3998,0.3001,663.6999,0.3668,-275,0.2,275,0.3921,0;0.5;0,1,663.3129,1.0,593.0,-557.0,1,1
475,664.0668,-11046.1366,-10382.0698,11046.5368,664.4669,0.3001,664.7670,0.3668,275,0.05,-275,0.2421,0;0.5;0,0,664.3801,0.0,-601.0,-607.0,1,1
476,665.1338,-11047.2037,-10382.0698,11047.6205,665.5507,0.3001,665.8508,0.3668,-275,0.2,275,0.2082,0;0.5;0,1,665.4554,1.0,600.0,-547.0,1,1
477,666.2176,-11048.2875,-10382.0698,11048.6876,666.6178,0.3001,666.9179,0.3668,275,0.05,-275,0.6,0;0.5;0,0,666.5310,0.0,-604.0,-610.0,1,1
478,667.2847,-11049.3546,-10382.0698,11051.2887,669.2188,0.3001,669.5189,0.3668,275,0.0088,-275,0.0759,0;0.5;0,0,669.1235,0.0,-599.0,-606.0,1,1
479,669.8858,-11051.9556,-10382.0698,11052.4891,670.4193,0.3001,670.7194,0.3668,-275,0.2,275,0.2671,0;0.5;0,1,670.3325,1.0,585.0,-565.0,1,1
480,671.0862,-11053.1561,-10382.0698,11053.7063,671.6365,0.3001,671.9366,0.3668,-275,0.0088,275,0.0098,1;0;0,1,671.5413,0.0,-601.0,-608.0,1,0
481,672.3034,-11054.3732,-10382.0698,11054.9568,672.8870,0.3001,673.1871,0.3668,-275,0.0088,275,0.017,0;0.5;0,1,672.7918,1.0,592.0,-556.0,1,1
482,673.5539,-11055.6237,-10382.0698,11056.0406,673.9707,0.3001,674.2708,0.3668,-275,0.0167,275,0.2088,0;0.5;0,1,673.8839,1.0,590.0,-559.0,1,1
483,674.6377,-11056.7075,-10382.0698,11057.1243,675.0545,0.3001,675.3546,0.3668,-275,0,275,0.1921,0;0.5;0,1,674.9591,1.0,590.0,-559.0,1,1
484,675.7214,-11057.7913,-10382.0698,11058.3248,676.2550,0.3001,676.5551,0.3668,-275,0.05,275,0.6,0;0.5;0,1,676.1680,1.0,599.0,-545.0,1,1
485,676.9219,-11058.9917,-10382.0698,11059.4086,677.3387,0.3001,677.6389,0.3668,275,0,-275,0.1921,0;0.5;0,0,677.2435,0.0,-592.0,-613.0,1,1
486,678.0057,-11060.0755,-10382.0698,11060.4090,678.3391,0.3001,678.6393,0.3668,-275,0.0088,275,0.0759,0;0.5;0,1,678.2524,1.0,596.0,-556.0,1,1
487,679.0061,-11061.0759,-10382.0698,11061.4427,679.3729,0.3001,679.6730,0.3668,275,0.2,-275,0.2235,0;0.5;0,0,679.2776,0.0,-593.0,-615.0,1,1
488,680.0398,-11062.1097,-10382.0698,11062.4431,680.3733,0.3001,680.6734,0.3668,275,0.45,-275,0.4735,1;0;0,0,680.2865,1.0,589.0,-564.0,1,0
489,681.0402,-11063.1101,-10382.0698,11064.0104,681.9406,0.3001,682.2407,0.3668,-275,0,275,0.0235,0;0.5;0,1,681.8537,1.0,587.0,-565.0,1,1
490,682.6075,-11064.6774,-10382.0698,11065.5444,683.4745,0.3001,683.7747,0.3668,-275,0.45,275,0.6421,0;0.5;0,1,683.3793,1.0,591.0,-553.0,1,1
491,684.1415,-11066.2113,-10382.0698,11066.8949,684.8251,0.3001,685.1252,0.3668,275,0.0167,-275,0.0177,0;0.5;0,0,684.7382,0.0,-599.0,-614.0,1,1
492,685.4920,-11067.5619,-10382.0698,11068.0454,685.9755,0.3001,686.2757,0.3668,275,0,-275,0.0235,0;0.5;0,0,685.8885,0.0,-599.0,-612.0,1,1
493,686.6425,-11068.7123,-10382.0698,11069.2459,687.1760,0.3001,687.4761,0.3668,-275,0,275,0.0082,0;0.5;0,1,687.0808,1.0,594.0,-555.0,1,1
494,687.8429,-11069.9128,-10382.0698,11070.6464,688.5766,0.3001,688.8767,0.3668,-275,0.0167,275,0.0249,0;0.5;0,1,688.4813,1.0,588.0,-559.0,1,1
495,689.2435,-11071.3134,-10382.0698,11071.9469,689.8771,0.3001,690.1772,0.3668,275,0.0088,-275,0.017,0;0.5;0,0,689.7820,0.0,-599.0,-620.0,1,1
496,690.5440,-11072.6139,-10382.0698,11072.9473,690.8775,0.3001,691.1776,0.3668,-275,0.05,275,0.1171,0;0.5;0,1,690.7906,1.0,593.0,-554.0,1,1
497,691.5444,-11073.6143,-10382.0698,11073.9978,691.9279,0.3001,692.2280,0.3668,275,0,-275,0.1921,0;0.5;0,0,691.8326,0.0,-600.0,-619.0,1,1
498,692.5949,-11074.6647,-10382.0698,11075.0815,693.0117,0.3001,693.3118,0.3668,-275,0.0167,275,0.0177,0;0.5;0,1,692.9249,1.0,592.0,-553.0,1,1
499,693.6786,-11075.7485,-10382.0698,11076.1653,694.0955,0.3001,694.3956,0.3668,-275,0.0167,275,0.0838,0;0.5;0,1,694.0085,1.0,593.0,-555.0,1,1
500,694.7624,-11076.8322,-10382.0698,11077.2991,695.2292,0.3001,695.5294,0.3668,-275,0.45,275,1,0;0.5;0,1,695.1423,1.0,590.0,-560.0,1,1
501,695.8962,-11077.9660,-10382.0698,11078.8831,696.8132,0.3001,697.1133,0.3668,275,0.0088,-275,0.0117,0;0.5;0,0,696.7180,0.0,-600.0,-613.0,1,1
502,697.4801,-11079.5500,-10382.0698,11080.3003,698.2304,0.3001,698.5306,0.3668,275,0.0167,-275,0.0838,0;0.5;0,0,698.1435,0.0,-594.0,-618.0,1,1
503,698.8974,-11080.9672,-10382.0698,11081.6008,699.5310,0.3001,699.8311,0.3668,275,0.05,-275,0.6,0;0.5;0,0,699.4441,0.0,-597.0,-616.0,1,1
504,700.1979,-11082.2677,-10382.0698,11082.6679,700.5981,0.3001,700.8982,0.3668,-275,0,275,0.0671,0;0.5;0,1,700.5030,1.0,593.0,-556.0,1,1
505,701.2650,-11083.3348,-10382.0698,11083.8684,701.7985,0.3001,702.0987,0.3668,-275,0.0088,275,0.0117,1;0;0,1,701.7033,0.0,-603.0,-615.0,1,0
506,702.4655,-11084.5353,-10382.0698,11085.1022,703.0324,0.3001,703.3325,0.3668,275,0.2,-275,0.75,0;0.5;0,0,702.9456,0.0,-598.0,-608.0,1,1
507,703.6993,-11085.7691,-10382.0698,11086.2193,704.1495,0.3001,704.4496,0.3668,275,0,-275,0.0671,0;0.5;0,0,704.0625,0.0,-600.0,-613.0,1,1
508,704.8164,-11086.8863,-10382.0698,11087.2364,705.1666,0.3001,705.4667,0.3668,-275,0.05,275,0.6,0;0.5;0,1,705.0797,1.0,596.0,-547.0,1,1
509,705.8335,-11087.9033,-10382.0698,11088.2368,706.1670,0.3001,706.4671,0.3668,275,0.45,-275,0.4735,0;0.5;0,0,706.0801,0.0,-602.0,-611.0,1,1
510,706.8339,-11088.9037,-10382.0698,11089.5040,707.4341,0.3001,707.7343,0.3668,275,0.0088,-275,0.0098,1;0;0,0,707.3472,1.0,599.0,-545.0,1,0
511,708.1011,-11090.1709,-10382.0698,11090.8045,708.7347,0.3001,709.0348,0.3668,-275,0.45,275,0.5171,0;0.5;0,1,708.6394,1.0,586.0,-556.0,1,1
512,709.4016,-11091.4714,-10382.0698,11092.1550,710.0852,0.3001,710.3853,0.3668,-275,0,275,0.001,0;0.5;0,1,709.9899,1.0,600.0,-538.0,1,1
513,710.7521,-11092.8220,-10382.0698,11093.4722,711.4024,0.3001,711.7025,0.3668,-275,0.2,275,0.2082,0;0.5;0,1,711.3156,1.0,594.0,-553.0,1,1
514,712.0693,-11094.1392,-10382.0698,11094.6060,712.5362,0.3001,712.8363,0.3668,-275,0.0088,275,0.0759,0;0.5;0,1,712.4493,1.0,605.0,-539.0,1,1
515,713.2031,-11095.2730,-10382.0698,11096.0066,713.9367,0.3001,714.2369,0.3668,275,0.45,-275,0.4735,0;0.5;0,0,713.8414,0.0,-599.0,-614.0,1,1
516,714.6037,-11096.6735,-10382.0698,11097.0904,715.0205,0.3001,715.3206,0.3668,275,0,-275,0.0671,0;0.5;0,0,714.9251,0.0,-596.0,-615.0,1,1
517,715.6874,-11097.7573,-10382.0698,11098.1241,716.0543,0.3001,716.3544,0.3668,-275,0.45,275,0.6421,0;0.5;0,1,715.9674,1.0,595.0,-551.0,1,1
518,716.7212,-11098.7910,-10382.0698,11100.6585,718.5886,0.3001,718.8887,0.3668,-275,0.2,275,0.2671,1;0;0,1,718.4933,0.0,-600.0,-614.0,1,0
519,719.2555,-11101.3254,-10382.0698,11101.8756,719.8058,0.3001,720.1059,0.3668,-275,0,275,0.0029,0;0.5;0,1,719.7191,1.0,590.0,-560.0,1,1
520,720.4727,-11102.5425,-10382.0698,11102.9594,720.8895,0.3001,721.1897,0.3668,275,0,-275,0.0671,0;0.5;0,0,720.7942,0.0,-598.0,-608.0,1,1
521,721.5565,-11103.6263,-10382.0698,11103.9764,721.9066,0.3001,722.2067,0.3668,-275,0.2,275,0.2082,0;0.5;0,1,721.8197,1.0,587.0,-558.0,1,1
522,722.5735,-11104.6434,-10382.0698,11105.3770,723.3072,0.3001,723.6073,0.3668,275,0,-275,0.0029,0;0.5;0,0,723.2118,0.0,-600.0,-612.0,1,1
523,723.9741,-11106.0439,-10382.0698,11106.6775,724.6077,0.3001,724.9078,0.3668,-275,0,275,0.0082,0;0.5;0,1,724.5208,1.0,585.0,-566.0,1,1
524,725.2746,-11107.3445,-10382.0698,11108.0114,725.9416,0.3001,726.2417,0.3668,-275,0.2,275,0.2082,0;0.5;0,1,725.8462,1.0,583.0,-565.0,1,1
525,726.6085,-11108.6783,-10382.0698,11109.1619,727.0920,0.3001,727.3921,0.3668,-275,0.2,275,1,0;0.5;0,1,726.9967,1.0,585.0,-558.0,1,1
526,727.7590,-11109.8288,-10382.0698,11110.4457,728.3759,0.3001,728.6760,0.3668,-275,0,275,0.0082,0;0.5;0,1,728.2807,1.0,590.0,-556.0,1,1
527,729.0428,-11111.1126,-10382.0698,11111.5295,729.4596,0.3001,729.7598,0.3668,-275,0.0167,275,0.0249,0;0.5;0,1,729.3727,1.0,591.0,-551.0,1,1
528,730.1266,-11112.1964,-10382.0698,11112.5966,730.5267,0.3001,730.8268,0.3668,-275,0.0088,275,0.0323,0;0.5;0,1,730.4314,1.0,591.0,-551.0,1,1
529,731.1937,-11113.2635,-10382.0698,11113.6637,731.5938,0.3001,731.8939,0.3668,275,0.0167,-275,0.2088,0;0.5;0,0,731.4987,0.0,-591.0,-608.0,1,1
530,732.2608,-11114.3306,-10382.0698,11114.7141,732.6442,0.3001,732.9444,0.3668,-275,0.0167,275,0.2088,0;0.5;0,1,732.5574,1.0,587.0,-560.0,1,1
531,733.3112,-11115.3810,-10382.0698,11115.9813,733.9114,0.3001,734.2115,0.3668,275,0.0088,-275,0.0117,0;0.5;0,0,733.8245,0.0,-595.0,-613.0,1,1
532,734.5784,-11116.6482,-10382.0698,11116.9483,734.8785,0.3001,735.1786,0.3668,275,0.2,-275,0.2082,1;0;0,0,734.7831,1.0,587.0,-559.0,1,0
533,735.5454,-11117.6152,-10382.0698,11118.2155,736.1456,0.3001,736.4458,0.3668,275,0.0167,-275,0.0177,0;0.5;0,0,736.0503,0.0,-599.0,-615.0,1,1
534,736.8126,-11118.8824,-10382.0698,11119.4660,737.3961,0.3001,737.6963,0.3668,-275,0.0167,275,0.0402,0;0.5;0,1,737.3009,1.0,570.0,-557.0,1,1
535,738.0631,-11120.1329,-10382.0698,11120.6498,738.5800,0.3001,738.8801,0.3668,275,0,-275,0.001,0;0.5;0,0,738.4930,0.0,-596.0,-616.0,1,1
536,739.2469,-11121.3167,-10382.0698,11121.8670,739.7971,0.3001,740.0972,0.3668,275,0,-275,0.001,1;0;0,0,739.7102,1.0,590.0,-546.0,1,0
537,740.4640,-11122.5339,-10382.0698,11123.1008,741.0309,0.3001,741.3311,0.3668,-275,0.05,275,0.1171,0;0.5;0,1,740.9440,1.0,582.0,-555.0,1,1
538,741.6979,-11123.7677,-10382.0698,11124.2179,742.1481,0.3001,742.4482,0.3668,-275,0,275,0.0671,0;0.5;0,1,742.0528,1.0,582.0,-561.0,1,1
539,742.8150,-11124.8848,-10382.0698,11125.4350,743.3652,0.3001,743.6653,0.3668,-275,0.2,275,0.2082,0;0.5;0,1,743.2783,1.0,582.0,-556.0,1,1
540,744.0321,-11126.1020,-10382.0698,11126.5688,744.4990,0.3001,744.7991,0.3668,275,0.05,-275,0.0582,1;0;0,0,744.4122,1.0,590.0,-545.0,1,0
541,745.1659,-11127.2358,-10382.0698,11127.5859,745.5161,0.3001,745.8162,0.3668,-275,0.05,275,0.0735,0;0.5;0,1,745.4208,1.0,594.0,-541.0,1,1
542,746.1830,-11128.2528,-10382.0698,11128.6697,746.5998,0.3001,746.9000,0.3668,-275,0.0088,275,0.0759,0;0.5;0,1,746.5046,1.0,588.0,-546.0,1,1
543,747.2668,-11129.3366,-10382.0698,11129.8702,747.8003,0.3001,748.1004,0.3668,-275,0,275,0.0029,0;0.5;0,1,747.7133,1.0,587.0,-540.0,1,1
544,748.4672,-11130.5371,-10382.0698,11131.1207,749.0508,0.3001,749.3509,0.3668,-275,0.2,275,0.2235,0;0.5;0,1,748.9555,1.0,577.0,-543.0,1,1
545,749.7178,-11131.7876,-10382.0698,11132.5546,750.4847,0.3001,750.7848,0.3668,275,0.0167,-275,0.0402,1;0;0,0,750.3897,1.0,572.0,-537.0,1,0
546,751.1517,-11133.2215,-10382.0698,11133.5883,751.5185,0.3001,751.8186,0.3668,-275,0.2,275,0.2082,0;0.5;0,1,751.4316,1.0,583.0,-536.0,1,1
547,752.1854,-11134.2553,-10382.0698,11134.7888,752.7190,0.3001,753.0191,0.3668,-275,0.0088,275,0.017,0;0.5;0,1,752.6320,1.0,580.0,-536.0,1,1
548,753.3859,-11135.4557,-10382.0698,11135.8892,753.8194,0.3001,754.1195,0.3668,-275,0.45,275,1,0;0.5;0,1,753.7242,1.0,575.0,-540.0,1,1
549,754.4863,-11136.5562,-10382.0698,11136.8730,754.8031,0.3001,755.1032,0.3668,-275,0.0167,275,0.2088,0;0.5;0,1,754.7079,1.0,576.0,-546.0,1,1
550,755.4701,-11137.5399,-10382.0698,11138.1401,756.0703,0.3001,756.3704,0.3668,275,0.0167,-275,0.0402,0;0.5;0,0,755.9833,0.0,-590.0,-616.0,1,1
551,756.7372,-11138.8071,-10382.0698,11139.3406,757.2708,0.3001,757.5709,0.3668,275,0,-275,0.0082,0;0.5;0,0,757.1755,0.0,-596.0,-614.0,1,1
552,757.9377,-11140.0076,-10382.0698,11140.5244,758.4546,0.3001,758.7547,0.3668,-275,0,275,0.0235,0;0.5;0,1,758.3594,1.0,572.0,-545.0,1,1
553,759.1215,-11141.1914,-10382.0698,11141.5415,759.4717,0.3001,759.7718,0.3668,-275,0.05,275,0.0529,1;0;0,1,759.3848,0.0,-597.0,-615.0,1,0
554,760.1386,-11142.2084,-10382.0698,11142.8254,760.7555,0.3001,761.0556,0.3668,-275,0.0088,275,0.0117,0;0.5;0,1,760.6602,1.0,576.0,-546.0,1,1
555,761.4224,-11143.4923,-10382.0698,11143.9091,761.8393,0.3001,762.1394,0.3668,275,0,-275,0.1921,0;0.5;0,0,761.7525,0.0,-595.0,-615.0,1,1
556,762.5062,-11144.5761,-10382.0698,11144.9095,762.8397,0.3001,763.1398,0.3668,275,0.2,-275,0.3921,1;0;0,0,762.7445,1.0,571.0,-551.0,1,0
557,763.5066,-11145.5765,-10382.0698,11146.5102,764.4403,0.3001,764.7404,0.3668,275,0.05,-275,0.0735,0;0.5;0,0,764.3535,0.0,-587.0,-619.0,1,1
558,765.1073,-11147.1771,-10382.0698,11147.8107,765.7408,0.3001,766.0410,0.3668,-275,0.0167,275,0.2088,0;0.5;0,1,765.6539,1.0,566.0,-561.0,1,1
559,766.4078,-11148.4776,-10382.0698,11148.8945,766.8246,0.3001,767.1247,0.3668,275,0.2,-275,0.75,0;0.5;0,0,766.7294,0.0,-592.0,-615.0,1,1
560,767.4915,-11149.5614,-10382.0698,11150.2283,768.1585,0.3001,768.4586,0.3668,275,0.0167,-275,0.2088,0;0.5;0,0,768.0718,0.0,-590.0,-618.0,1,1