trial,presentation_startTime,presentation_duration,prefeedback_startTime,prefeedback_duration,feedback_startTime,feedback_duration,fixation_startTime,fixation_duration,presentation_object1_positionX,presentation_object1_contrastValue,presentation_object2_positionX,presentation_object2_contrastValue,feedback_object1_color,trialValue,presentation_responseTime,presentation_response,presentation_touchPositionX,presentation_touchPositionY,respondedInTime,correct
1,120.8451,-17935.9294,-17815.0843,17937.3091,122.2248,0.3001,122.5249,0.3668,275,0.0088,-275,0.0323,0;0.5;0,0,122.1337,0.0,-1072.0,-503.0,1,1
2,122.8918,-17937.9760,-17815.0843,17938.9764,123.8922,0.3001,124.1923,0.3668,275,0.45,-275,0.5171,1;0;0,0,123.7928,1.0,1028.0,-450.0,1,0
3,124.5591,-17939.6434,-17815.0843,17940.6104,125.5262,0.3001,125.8263,0.3668,-275,0.05,275,0.1171,0;0.5;0,1,125.4267,1.0,1021.0,-436.0,1,1
4,126.1931,-17941.2774,-17815.0843,17942.5779,127.4936,0.3001,127.7938,0.3668,275,0.45,-275,0.5171,1;0;0,0,127.4026,1.0,1020.0,-425.0,1,0
5,128.1606,-17943.2449,-17815.0843,17943.9285,128.8442,0.3001,129.1443,0.3668,-275,0,275,0.001,1;0;0,1,128.7449,0.0,-1073.0,-481.0,1,0
6,129.5111,-17944.5954,-17815.0843,17945.4958,130.4115,0.3001,130.7116,0.3668,-275,0.2,275,0.2082,0;0.5;0,1,130.3206,1.0,1014.0,-442.0,1,1
7,131.0784,-17946.1627,-17815.0843,17951.7983,136.7141,0.3001,137.0142,0.3668,275,0.0088,-275,0.0117,1;0;0,0,136.6146,1.0,1016.0,-452.0,1,0
8,137.3810,-17952.4653,-17815.0843,17953.0989,138.0146,0.3001,138.3147,0.3668,-275,0.05,275,0.0529,1;0;0,1,137.9236,0.0,-1073.0,-479.0,1,0
9,138.6815,-17953.7658,-17815.0843,17954.5828,139.4985,0.3001,139.7986,0.3668,-275,0.05,275,0.1171,0;0.5;0,1,139.4075,1.0,1013.0,-449.0,1,1
10,140.1655,-17955.2497,-17815.0843,17956.2501,141.1659,0.3001,141.4660,0.3668,275,0.0167,-275,0.2088,0;0.5;0,0,141.0664,0.0,-1077.0,-465.0,1,1
11,141.8328,-17956.9171,-17815.0843,17957.5674,142.4831,0.3001,142.7832,0.3668,275,0.2,-275,1,0;0.5;0,0,142.3921,0.0,-1066.0,-499.0,1,1
12,143.1500,-17958.2343,-17815.0843,17958.8512,143.7669,0.3001,144.0670,0.3668,-275,0.2,275,0.75,0;0.5;0,1,143.6760,1.0,1001.0,-466.0,1,1
13,144.4339,-17959.5181,-17815.0843,17967.0045,151.9202,0.3001,152.2204,0.3668,-275,0.0088,275,0.0117,0;0.5;0,1,151.8291,1.0,1001.0,-460.0,1,1
14,152.5872,-17967.6715,-17815.0843,17968.7052,153.6209,0.3001,153.9211,0.3668,-275,0.45,275,0.5171,0;0.5;0,1,153.5300,1.0,989.0,-470.0,1,1
15,154.2879,-17969.3722,-17815.0843,17970.4393,155.3550,0.3001,155.6551,0.3668,275,0.05,-275,0.0735,1;0;0,0,155.2638,1.0,1000.0,-454.0,1,0
16,156.0219,-17971.1062,-17815.0843,17971.7565,156.6722,0.3001,156.9723,0.3668,-275,0.0088,275,0.0323,1;0;0,1,156.5728,0.0,-1075.0,-483.0,1,0
17,157.3391,-17972.4234,-17815.0843,17973.1070,158.0227,0.3001,158.3229,0.3668,-275,0.2,275,0.3921,0;0.5;0,1,157.9234,1.0,990.0,-474.0,1,1
18,158.6897,-17973.7740,-17815.0843,17975.0745,159.9902,0.3001,160.2903,0.3668,275,0.2,-275,0.2671,0;0.5;0,0,159.8992,0.0,-1055.0,-503.0,1,1
19,160.6571,-17975.7414,-17815.0843,17978.6426,163.5583,0.3001,163.8584,0.3668,275,0.0167,-275,0.0196,0;0.5;0,0,163.4588,0.0,-1080.0,-463.0,1,1
20,164.2253,-17979.3095,-17815.0843,17980.0765,164.9922,0.3001,165.2924,0.3668,275,0.2,-275,1,0;0.5;0,0,164.9013,0.0,-1065.0,-505.0,1,1
21,165.6592,-17980.7435,-17815.0843,17981.5438,166.4595,0.3001,166.7596,0.3668,-275,0.2,275,0.3921,0;0.5;0,1,166.3601,1.0,994.0,-490.0,1,1
22,167.1264,-17982.2107,-17815.0843,17988.6133,173.5290,0.3001,173.8292,0.3668,-275,0.0088,275,0.0098,0;0.5;0,1,173.4381,1.0,997.0,-487.0,1,1
23,174.1960,-17989.2803,-17815.0843,17992.2481,177.1639,0.3001,177.4640,0.3668,-275,0.0088,275,0.0117,1;0;0,1,177.0644,0.0,-1076.0,-486.0,1,0
24,177.8308,-17992.9151,-17815.0843,17993.6821,178.5978,0.3001,178.8979,0.3668,275,0.2,-275,0.2235,0;0.5;0,0,178.4984,0.0,-1064.0,-502.0,1,1
25,179.2647,-17994.3490,-17815.0843,17994.9993,179.9150,0.3001,180.2151,0.3668,275,0.2,-275,0.2082,0;0.5;0,0,179.8240,0.0,-1057.0,-504.0,1,1
26,180.5819,-17995.6662,-17815.0843,18001.0350,185.9508,0.3001,186.2509,0.3668,-275,0,275,0.0082,1;0;0,1,185.8513,0.0,-1057.0,-513.0,1,0
27,186.6177,-18001.7020,-17815.0843,18003.4027,188.3184,0.3001,188.6185,0.3668,275,0,-275,0.0235,0;0.5;0,0,188.2273,0.0,-1065.0,-508.0,1,1
28,188.9853,-18004.0696,-17815.0843,18004.9033,189.8190,0.3001,190.1191,0.3668,275,0,-275,0.0671,0;0.5;0,0,189.7196,0.0,-1047.0,-529.0,1,1
29,190.4859,-18005.5702,-17815.0843,18007.6544,192.5701,0.3001,192.8702,0.3668,275,0.05,-275,0.0735,0;0.5;0,0,192.4707,0.0,-1065.0,-491.0,1,1
30,193.2371,-18008.3213,-17815.0843,18009.0550,193.9707,0.3001,194.2708,0.3668,-275,0.2,275,0.75,0;0.5;0,1,193.8712,1.0,978.0,-499.0,1,1
31,194.6376,-18009.7219,-17815.0843,18010.4555,195.3713,0.3001,195.6714,0.3668,275,0.45,-275,1,0;0.5;0,0,195.2719,0.0,-1048.0,-525.0,1,1
32,196.0382,-18011.1225,-17815.0843,18013.2233,198.1391,0.3001,198.4392,0.3668,275,0.45,-275,0.5171,1;0;0,0,198.0396,1.0,997.0,-464.0,1,0
33,198.8060,-18013.8903,-17815.0843,18014.0403,198.9561,0.3001,199.2562,0.3668,-275,0,275,0.0671,1;0;0,1,198.8651,0.0,-1060.0,-508.0,1,0
34,199.6230,-18014.7073,-17815.0843,18017.4251,202.3408,0.3001,202.6409,0.3668,-275,0.0088,275,0.0098,0;0.5;0,1,202.2497,1.0,1003.0,-459.0,1,1
35,203.0077,-18018.0920,-17815.0843,18019.0090,203.9247,0.3001,204.2249,0.3668,-275,0.0167,275,0.0838,0;0.5;0,1,203.8254,1.0,999.0,-459.0,1,1
36,204.5917,-18019.6760,-17815.0843,18023.3775,208.2932,0.3001,208.5933,0.3668,275,0,-275,0.0082,1;0;0,0,208.2020,1.0,998.0,-465.0,1,0
37,208.9601,-18024.0444,-17815.0843,18025.2616,210.1773,0.3001,210.4774,0.3668,275,0.0088,-275,0.0117,0;0.5;0,0,210.0779,0.0,-1055.0,-520.0,1,1
38,210.8442,-18025.9285,-17815.0843,18027.6125,212.5282,0.3001,212.8284,0.3668,275,0.0167,-275,0.0177,0;0.5;0,0,212.4371,0.0,-1073.0,-484.0,1,1
39,213.1952,-18028.2795,-17815.0843,18028.9506,213.8663,0.2960,214.1622,0.3668,-275,0.05,275,0.6,0;0.5;0,1,213.7711,1.0,980.0,-503.0,1,1
40,214.5291,-18029.6133,-17815.0843,18030.3136,215.2293,0.3001,215.5295,0.3668,275,0.45,-275,0.6421,0;0.5;0,0,215.1383,0.0,-1056.0,-520.0,1,1
41,215.8963,-18030.9806,-17815.0843,18032.6646,217.5803,0.3001,217.8804,0.3668,275,0.45,-275,0.5171,0;0.5;0,0,217.4892,0.0,-1068.0,-505.0,1,1
42,218.2472,-18033.3315,-17815.0843,18034.0652,218.9809,0.3001,219.2810,0.3668,-275,0.2,275,1,0;0.5;0,1,218.8815,1.0,977.0,-496.0,1,1
43,219.6478,-18034.7321,-17815.0843,18035.3157,220.2314,0.3001,220.5315,0.3668,275,0.05,-275,0.2421,0;0.5;0,0,220.1404,0.0,-1057.0,-517.0,1,1
44,220.8983,-18035.9826,-17815.0843,18036.6329,221.5486,0.3001,221.8487,0.3668,-275,0.0088,275,0.0759,0;0.5;0,1,221.4576,1.0,986.0,-484.0,1,1
45,222.2155,-18037.2998,-17815.0843,18038.1501,223.0659,0.3001,223.3660,0.3668,-275,0.45,275,0.6421,0;0.5;0,1,222.9749,1.0,984.0,-493.0,1,1
46,223.7328,-18038.8171,-17815.0843,18039.8842,224.7999,0.3001,225.1000,0.3668,-275,0.05,275,0.0735,0;0.5;0,1,224.7087,1.0,978.0,-496.0,1,1
47,225.4668,-18040.5511,-17815.0843,18045.7532,230.6690,0.3001,230.9691,0.3668,-275,0.0088,275,0.017,1;0;0,1,230.5780,0.0,-1046.0,-522.0,1,0
48,231.3359,-18046.4202,-17815.0843,18047.0538,231.9695,0.3001,232.2696,0.3668,-275,0.45,275,0.4735,0;0.5;0,1,231.8784,1.0,980.0,-485.0,1,1
49,232.6364,-18047.7207,-17815.0843,18048.8712,233.7869,0.3001,234.0870,0.3668,-275,0.0088,275,0.0323,0;0.5;0,1,233.6958,1.0,976.0,-488.0,1,1
50,234.4538,-18049.5381,-17815.0843,18052.5560,237.4717,0.3001,237.7718,0.3668,-275,0,275,0.0235,0;0.5;0,1,237.3724,1.0,987.0,-477.0,1,1
51,238.1387,-18053.2229,-17815.0843,18054.2400,239.1557,0.3001,239.4559,0.3668,-275,0.2,275,0.2671,0;0.5;0,1,239.0648,1.0,977.0,-489.0,1,1
52,239.8227,-18054.9070,-17815.0843,18055.6739,240.5897,0.3001,240.8898,0.3668,275,0.45,-275,0.6421,0;0.5;0,0,240.4985,0.0,-1043.0,-556.0,1,1
53,241.2566,-18056.3409,-17815.0843,18060.7593,245.6751,0.3001,245.9752,0.3668,275,0,-275,0.0082,0;0.5;0,0,245.5758,0.0,-1064.0,-507.0,1,1
54,246.3420,-18061.4263,-17815.0843,18065.5613,250.4770,0.3001,250.7771,0.3668,275,0.0088,-275,0.0098,0;0.5;0,0,250.3776,0.0,-1052.0,-511.0,1,1
55,251.1440,-18066.2282,-17815.0843,18070.0298,254.9455,0.3001,255.2456,0.3668,275,0.0167,-275,0.0249,0;0.5;0,0,254.8544,0.0,-1055.0,-500.0,1,1
56,255.6124,-18070.6967,-17815.0843,18072.7309,257.6466,0.3001,257.9467,0.3668,275,0.0088,-275,0.0098,0;0.5;0,0,257.5554,0.0,-1057.0,-497.0,1,1
57,258.3135,-18073.3978,-17815.0843,18074.1148,259.0305,0.3001,259.3306,0.3668,-275,0.45,275,1,0;0.5;0,1,258.9394,1.0,965.0,-509.0,1,1
58,259.6974,-18074.7817,-17815.0843,18075.4653,260.3810,0.3001,260.6812,0.3668,-275,0.0167,275,0.2088,0;0.5;0,1,260.2817,1.0,970.0,-520.0,1,1
59,261.0480,-18076.1323,-17815.0843,18077.1660,262.0817,0.3001,262.3819,0.3668,275,0.0088,-275,0.0323,0;0.5;0,0,261.9823,0.0,-1044.0,-519.0,1,1
60,262.7487,-18077.8330,-17815.0843,18078.6166,263.5323,0.3001,263.8324,0.3668,-275,0.0088,275,0.2009,0;0.5;0,1,263.4413,1.0,968.0,-505.0,1,1
61,264.1993,-18079.2835,-17815.0843,18081.0676,265.9833,0.3001,266.2834,0.3668,-275,0,275,0.0082,1;0;0,1,265.8924,0.0,-1058.0,-502.0,1,0
62,266.6503,-18081.7345,-17815.0843,18082.2181,267.1338,0.3001,267.4339,0.3668,-275,0.0167,275,0.0196,0;0.5;0,1,267.0428,1.0,973.0,-488.0,1,1
63,267.8007,-18082.8850,-17815.0843,18083.8187,268.7344,0.3001,269.0346,0.3668,275,0.0088,-275,0.017,1;0;0,0,268.6350,1.0,980.0,-478.0,1,0
64,269.4014,-18084.4857,-17815.0843,18084.5857,269.5014,0.3001,269.8015,0.3668,-275,0.0167,275,0.2088,1;0;0,1,269.4103,0.0,-1050.0,-511.0,1,0
65,270.1684,-18085.2526,-17815.0843,18085.3860,270.3017,0.3001,270.6019,0.0000,275,0,-275,0.1921,1;0;0,0,270.2025,1.0,978.0,-493.0,1,0
66,270.6019,-18085.6861,-17815.0843,18086.1030,271.0187,0.3001,271.3188,0.3668,275,0.0167,-275,0.0838,0;0.5;0,0,270.9277,0.0,-1045.0,-528.0,1,1
67,271.6856,-18086.7699,-17815.0843,18087.5369,272.4526,0.3001,272.7527,0.3668,275,0,-275,0.0235,0;0.5;0,0,272.3615,0.0,-1053.0,-508.0,1,1
68,273.1196,-18088.2038,-17815.0843,18089.2876,274.2033,0.3001,274.5035,0.3668,275,0,-275,0.0029,0;0.5;0,0,274.1040,0.0,-1063.0,-488.0,1,1
69,274.8703,-18089.9546,-17815.0843,18090.8382,275.7540,0.3001,276.0541,0.3668,275,0.45,-275,0.4582,0;0.5;0,0,275.6628,0.0,-1048.0,-512.0,1,1
70,276.4209,-18091.5052,-17815.0843,18093.3559,278.2716,0.3001,278.5718,0.3668,275,0.0167,-275,0.0177,1;0;0,0,278.1806,1.0,979.0,-500.0,1,0
71,278.9386,-18094.0229,-17815.0843,18094.3730,279.2887,0.3001,279.5889,0.3668,-275,0.0088,275,0.0117,1;0;0,1,279.1893,0.0,-1054.0,-503.0,1,0
72,279.9557,-18095.0400,-17815.0843,18095.1733,280.0891,0.3001,280.3892,0.3668,275,0.45,-275,0.4735,1;0;0,0,279.9897,1.0,984.0,-478.0,1,0
73,280.7560,-18095.8403,-17815.0843,18096.2738,281.1895,0.3001,281.4896,0.3668,-275,0.0167,275,0.0249,1;0;0,1,281.0985,0.0,-1065.0,-491.0,1,0
74,281.8564,-18096.9407,-17815.0843,18098.3746,283.2904,0.3001,283.5905,0.3668,-275,0,275,0.0235,0;0.5;0,1,283.1909,1.0,976.0,-486.0,1,1
75,283.9573,-18099.0416,-17815.0843,18100.1587,285.0744,0.3001,285.3745,0.3668,-275,0.0088,275,0.017,0;0.5;0,1,284.9750,1.0,982.0,-491.0,1,1
76,285.7414,-18100.8256,-17815.0843,18101.6260,286.5417,0.3001,286.8418,0.3668,275,0.2,-275,0.2235,1;0;0,0,286.4423,1.0,979.0,-481.0,1,0
77,287.2086,-18102.2929,-17815.0843,18103.7101,288.6259,0.3001,288.9260,0.3668,-275,0.05,275,0.0529,1;0;0,1,288.5349,0.0,-1043.0,-535.0,1,0
78,289.2928,-18104.3771,-17815.0843,18105.1107,290.0264,0.3001,290.3265,0.3668,-275,0.0088,275,0.2009,0;0.5;0,1,289.9271,1.0,974.0,-499.0,1,1
79,290.6934,-18105.7776,-17815.0843,18106.7781,291.6938,0.3001,291.9939,0.3668,-275,0.05,275,0.0735,1;0;0,1,291.5944,0.0,-1053.0,-506.0,1,0
80,292.3607,-18107.4450,-17815.0843,18108.1286,293.0443,0.3001,293.3444,0.3668,275,0.45,-275,0.6421,0;0.5;0,0,292.9449,0.0,-1050.0,-521.0,1,1
81,293.7113,-18108.7955,-17815.0843,18110.2795,295.1952,0.3001,295.4953,0.3710,275,0.0167,-275,0.0196,0;0.5;0,0,295.0958,0.0,-1046.0,-521.0,1,1
82,295.8663,-18110.9506,-17815.0843,18112.3303,297.2460,0.3001,297.5462,0.3668,-275,0.45,275,0.4735,1;0;0,1,297.1551,0.0,-1047.0,-514.0,1,0
83,297.9130,-18112.9973,-17815.0843,18113.1807,298.0964,0.3001,298.3965,0.3668,-275,0,275,0.0029,1;0;0,1,298.0054,0.0,-1048.0,-517.0,1,0
84,298.7633,-18113.8476,-17815.0843,18114.0644,298.9801,0.3001,299.2802,0.3668,-275,0.0167,275,0.0177,0;0.5;0,1,298.8890,1.0,972.0,-494.0,1,1
85,299.6470,-18114.7313,-17815.0843,18117.2823,302.1980,0.3001,302.4982,0.3668,-275,0.05,275,0.0582,0;0.5;0,1,302.0985,1.0,974.0,-493.0,1,1
86,302.8650,-18117.9493,-17815.0843,18119.0831,303.9988,0.3001,304.2989,0.3668,-275,0.0088,275,0.0759,0;0.5;0,1,303.9077,1.0,975.0,-494.0,1,1
87,304.6657,-18119.7500,-17815.0843,18120.4503,305.3660,0.3001,305.6661,0.3668,-275,0.2,275,0.75,0;0.5;0,1,305.2750,1.0,970.0,-514.0,1,1
88,306.0329,-18121.1172,-17815.0843,18126.6195,311.5352,0.3001,311.8353,0.3668,-275,0.0088,275,0.0117,0;0.5;0,1,311.4442,1.0,967.0,-507.0,1,1
89,312.2021,-18127.2864,-17815.0843,18129.8374,314.7531,0.3001,315.0533,0.3668,-275,0,275,0.0029,0;0.5;0,1,314.6621,1.0,969.0,-503.0,1,1
90,315.4201,-18130.5044,-17815.0843,18133.0221,317.9378,0.3001,318.2379,0.3668,-275,0.0167,275,0.0177,1;0;0,1,317.8383,0.0,-1046.0,-519.0,1,0
91,318.6047,-18133.6890,-17815.0843,18134.6561,319.5718,0.3001,319.8719,0.3668,275,0.0088,-275,0.017,0;0.5;0,0,319.4809,0.0,-1036.0,-541.0,1,1
92,320.2387,-18135.3230,-17815.0843,18135.9733,320.8890,0.3001,321.1891,0.3668,-275,0.45,275,1,0;0.5;0,1,320.7896,1.0,956.0,-530.0,1,1
93,321.5559,-18136.6402,-17815.0843,18137.8574,322.7731,0.3001,323.0732,0.3668,275,0.2,-275,0.2671,0;0.5;0,0,322.6737,0.0,-1038.0,-536.0,1,1
94,323.4400,-18138.5243,-17815.0843,18139.1912,324.1069,0.3001,324.4071,0.3668,-275,0.45,275,1,0;0.5;0,1,324.0075,1.0,965.0,-517.0,1,1
95,324.7739,-18139.8582,-17815.0843,18140.7252,325.6409,0.3001,325.9410,0.3668,275,0.05,-275,0.1171,0;0.5;0,0,325.5499,0.0,-1035.0,-546.0,1,1
96,326.3078,-18141.3921,-17815.0843,18141.9924,326.9081,0.3001,327.2082,0.3668,-275,0.45,275,0.4582,0;0.5;0,1,326.8170,1.0,963.0,-517.0,1,1
97,327.5750,-18142.6593,-17815.0843,18143.2595,328.1753,0.3001,328.4754,0.3668,-275,0.45,275,0.5171,0;0.5;0,1,328.0760,1.0,961.0,-522.0,1,1
98,328.8422,-18143.9265,-17815.0843,18144.4100,329.3257,0.3001,329.6259,0.3668,275,0.2,-275,1,0;0.5;0,0,329.2347,0.0,-1037.0,-538.0,1,1
99,329.9927,-18145.0770,-17815.0843,18145.6939,330.6096,0.3001,330.9097,0.3668,275,0.2,-275,0.2082,0;0.5;0,0,330.5188,0.0,-1030.0,-550.0,1,1
100,331.2765,-18146.3608,-17815.0843,18146.9611,331.8768,0.3001,332.1769,0.3668,-275,0.45,275,0.6421,0;0.5;0,1,331.7774,1.0,965.0,-509.0,1,1
101,332.5437,-18147.6280,-17815.0843,18151.4462,336.3619,0.3001,336.6620,0.3668,275,0,-275,0.001,0;0.5;0,0,336.2709,0.0,-1029.0,-554.0,1,1
102,337.0289,-18152.1131,-17815.0843,18153.0135,337.9292,0.3001,338.2294,0.3668,-275,0.0167,275,0.0402,0;0.5;0,1,337.8382,1.0,961.0,-522.0,1,1
103,338.5962,-18153.6805,-17815.0843,18155.3311,340.2468,0.3001,340.5470,0.3668,-275,0.0088,275,0.0098,0;0.5;0,1,340.1558,1.0,960.0,-514.0,1,1
104,340.9138,-18155.9981,-17815.0843,18156.6817,341.5974,0.3001,341.8975,0.3668,-275,0.2,275,1,0;0.5;0,1,341.5064,1.0,967.0,-519.0,1,1
105,342.2643,-18157.3486,-17815.0843,18158.0155,342.9313,0.3001,343.2314,0.3668,275,0.05,-275,0.6,0;0.5;0,0,342.8403,0.0,-1027.0,-557.0,1,1
106,343.5982,-18158.6825,-17815.0843,18159.2827,344.1984,0.3001,344.4986,0.3668,-275,0.45,275,0.6421,1;0;0,1,344.0990,0.0,-1028.0,-564.0,1,0
107,344.8654,-18159.9497,-17815.0843,18160.5833,345.4990,0.3001,345.7991,0.3668,275,0.05,-275,0.0529,1;0;0,0,345.3996,1.0,963.0,-512.0,1,0
108,346.1659,-18161.2502,-17815.0843,18161.7837,346.6995,0.3001,346.9996,0.0000,-275,0.2,275,0.2235,1;0;0,1,346.6085,0.0,-1027.0,-552.0,1,0
109,346.9996,-18162.0839,-17815.0843,18162.5007,347.4164,0.3001,347.7165,0.3668,-275,0.0167,275,0.0249,0;0.5;0,1,347.3253,1.0,960.0,-517.0,1,1
110,348.0834,-18163.1676,-17815.0843,18164.0513,348.9670,0.3001,349.2672,0.3668,-275,0.0088,275,0.0117,0;0.5;0,1,348.8761,1.0,960.0,-522.0,1,1
111,349.6340,-18164.7183,-17815.0843,18167.4694,352.3851,0.3001,352.6852,0.3668,275,0.0088,-275,0.0098,1;0;0,0,352.2940,1.0,953.0,-527.0,1,0
112,353.0520,-18168.1363,-17815.0843,18168.5198,353.4355,0.3001,353.7357,0.3668,275,0.45,-275,0.4735,0;0.5;0,0,353.3360,0.0,-1026.0,-550.0,1,1
113,354.1025,-18169.1868,-17815.0843,18173.7053,358.6210,0.3001,358.9211,0.3668,275,0.0088,-275,0.0117,0;0.5;0,0,358.5300,0.0,-1026.0,-548.0,1,1
114,359.2879,-18174.3722,-17815.0843,18176.0062,360.9219,0.3001,361.2220,0.3668,-275,0,275,0.0029,1;0;0,1,360.8309,0.0,-1022.0,-556.0,1,0
115,361.5888,-18176.6731,-17815.0843,18177.1900,362.1057,0.3001,362.4058,0.3668,275,0.2,-275,0.2235,1;0;0,0,362.0065,1.0,956.0,-523.0,1,0
116,362.7727,-18177.8569,-17815.0843,18178.7406,363.6563,0.3001,363.9565,0.3668,-275,0.05,275,0.6,0;0.5;0,1,363.5569,1.0,956.0,-523.0,1,1
117,364.3233,-18179.4076,-17815.0843,18179.9578,364.8735,0.3001,365.1736,0.3668,275,0.0088,-275,0.2009,0;0.5;0,0,364.7825,0.0,-1023.0,-559.0,1,1
118,365.5404,-18180.6247,-17815.0843,18182.0920,367.0077,0.3001,367.3078,0.3668,275,0,-275,0.0082,0;0.5;0,0,366.9165,0.0,-1027.0,-550.0,1,1
119,367.6746,-18182.7589,-17815.0843,18184.0761,368.9918,0.3001,369.2920,0.3668,275,0.0167,-275,0.0402,0;0.5;0,0,368.8925,0.0,-1025.0,-551.0,1,1
120,369.6588,-18184.7431,-17815.0843,18185.4600,370.3757,0.3001,370.6759,0.3668,275,0.05,-275,0.6,0;0.5;0,0,370.2847,0.0,-1029.0,-550.0,1,1
121,371.0427,-18186.1270,-17815.0843,18186.7606,371.6763,0.3001,371.9764,0.3668,275,0.05,-275,0.2421,0;0.5;0,0,371.5852,0.0,-1017.0,-568.0,1,1
122,372.3432,-18187.4275,-17815.0843,18190.9623,375.8780,0.3001,376.1781,0.3668,275,0,-275,0.001,1;0;0,0,375.7870,1.0,953.0,-525.0,1,0
123,376.5449,-18191.6292,-17815.0843,18192.1294,377.0451,0.3001,377.3452,0.3668,-275,0.0088,275,0.2009,0;0.5;0,1,376.9540,1.0,954.0,-522.0,1,1
124,377.7121,-18192.7963,-17815.0843,18193.3799,378.2956,0.3001,378.5957,0.3668,275,0.2,-275,0.3921,0;0.5;0,0,378.1963,0.0,-1024.0,-551.0,1,1
125,378.9626,-18194.0468,-17815.0843,18197.8150,382.7308,0.3001,383.0309,0.3668,275,0.0088,-275,0.0117,0;0.5;0,0,382.6398,0.0,-1019.0,-564.0,1,1
126,383.3977,-18198.4820,-17815.0843,18199.8492,384.7649,0.3001,385.0650,0.3668,275,0,-275,0.0029,1;0;0,0,384.6655,1.0,953.0,-527.0,1,0
127,385.4319,-18200.5161,-17815.0843,18201.8000,386.7157,0.3001,387.0158,0.3668,-275,0.0167,275,0.0249,0;0.5;0,1,386.6163,1.0,956.0,-525.0,1,1
128,387.3827,-18202.4669,-17815.0843,18203.1672,388.0829,0.3001,388.3831,0.3668,275,0.45,-275,0.6421,0;0.5;0,0,387.9835,0.0,-1009.0,-596.0,1,1
129,388.7499,-18203.8342,-17815.0843,18204.5344,389.4502,0.3001,389.7503,0.3668,275,0.05,-275,0.6,0;0.5;0,0,389.3591,0.0,-1021.0,-572.0,1,1
130,390.1171,-18205.2014,-17815.0843,18205.8350,390.7507,0.3001,391.0508,0.3668,275,0.2,-275,0.75,0;0.5;0,0,390.6514,0.0,-1011.0,-585.0,1,1
131,391.4176,-18206.5019,-17815.0843,18207.6857,392.6014,0.3001,392.9016,0.3668,-275,0,275,0.1921,0;0.5;0,1,392.5102,1.0,951.0,-523.0,1,1
132,393.2684,-18208.3527,-17815.0843,18209.1863,394.1020,0.3001,394.4022,0.3668,275,0.0088,-275,0.0759,0;0.5;0,0,394.0109,0.0,-1009.0,-601.0,1,1
133,394.7690,-18209.8533,-17815.0843,18210.5702,395.4859,0.3001,395.7861,0.3668,-275,0.45,275,0.4582,1;0;0,1,395.3865,0.0,-1017.0,-572.0,1,0
134,396.1529,-18211.2372,-17815.0843,18211.8207,396.7364,0.3001,397.0366,0.3668,-275,0,275,0.0082,1;0;0,1,396.6453,0.0,-1013.0,-570.0,1,0
135,397.4034,-18212.4877,-17815.0843,18213.4881,398.4038,0.3001,398.7039,0.3668,-275,0.2,275,0.2082,0;0.5;0,1,398.3128,1.0,952.0,-522.0,1,1
136,399.0707,-18214.1550,-17815.0843,18215.0554,399.9711,0.3001,400.2712,0.3668,275,0.45,-275,0.6421,0;0.5;0,0,399.8801,0.0,-1014.0,-575.0,1,1
137,400.6380,-18215.7223,-17815.0843,18218.8569,403.7726,0.3001,404.0728,0.3668,-275,0.0167,275,0.0177,1;0;0,1,403.6732,0.0,-1014.0,-570.0,1,0
138,404.4396,-18219.5239,-17815.0843,18220.7243,405.6401,0.3001,405.9402,0.3668,-275,0.0167,275,0.0196,1;0;0,1,405.5490,0.0,-1017.0,-555.0,1,0
139,406.3070,-18221.3913,-17815.0843,18221.5080,406.4237,0.3001,406.7238,0.3668,275,0.05,-275,0.2421,1;0;0,0,406.3326,1.0,951.0,-526.0,1,0
140,407.0907,-18222.1749,-17815.0843,18222.8585,407.7743,0.3001,408.0744,0.3668,-275,0.05,275,0.6,0;0.5;0,1,407.6749,1.0,950.0,-526.0,1,1
141,408.4412,-18223.5255,-17815.0843,18227.1936,412.1094,0.3001,412.4095,0.3668,-275,0.0088,275,0.0098,1;0;0,1,412.0183,0.0,-1016.0,-556.0,1,0
142,412.7763,-18227.8606,-17815.0843,18228.4608,413.3765,0.3001,413.6767,0.3668,-275,0.45,275,1,0;0.5;0,1,413.2855,1.0,950.0,-523.0,1,1
143,414.0435,-18229.1278,-17815.0843,18232.5792,417.4949,0.3001,417.7950,0.3668,275,0,-275,0.0029,0;0.5;0,0,417.3955,0.0,-1004.0,-594.0,1,1
144,418.1618,-18233.2461,-17815.0843,18235.8472,420.7629,0.3001,421.0630,0.3668,275,0,-275,0.001,0;0.5;0,0,420.6718,0.0,-1010.0,-572.0,1,1
145,421.4298,-18236.5141,-17815.0843,18237.2311,422.1468,0.3001,422.4469,0.3668,-275,0.2,275,0.3921,0;0.5;0,1,422.0475,1.0,934.0,-560.0,1,1
146,422.8137,-18237.8980,-17815.0843,18241.0493,425.9650,0.3001,426.2651,0.3668,-275,0,275,0.001,1;0;0,1,425.8740,0.0,-1013.0,-575.0,1,0
147,426.6319,-18241.7162,-17815.0843,18241.8162,426.7320,0.3043,427.0363,0.3626,-275,0,275,0.0671,0;0.5;0,1,426.6409,1.0,940.0,-542.0,1,1
148,427.3989,-18242.4832,-17815.0843,18243.1168,428.0325,0.3001,428.3326,0.3668,-275,0.05,275,0.6,0;0.5;0,1,427.9414,1.0,945.0,-546.0,1,1
149,428.6994,-18243.7837,-17815.0843,18244.6007,429.5164,0.3001,429.8165,0.3668,275,0.2,-275,0.2082,1;0;0,0,429.4169,1.0,946.0,-535.0,1,0
150,430.1834,-18245.2676,-17815.0843,18245.8179,430.7336,0.3001,431.0337,0.3668,-275,0.05,275,0.0582,0;0.5;0,1,430.6343,1.0,946.0,-528.0,1,1
151,431.4005,-18246.4848,-17815.0843,18247.1517,432.0675,0.3001,432.3676,0.3668,275,0.2,-275,1,0;0.5;0,0,431.9765,0.0,-1004.0,-597.0,1,1
152,432.7344,-18247.8187,-17815.0843,18248.6524,433.5681,0.3001,433.8682,0.3668,275,0.2,-275,0.3921,0;0.5;0,0,433.4770,0.0,-1015.0,-584.0,1,1
153,434.2350,-18249.3193,-17815.0843,18253.4210,438.3367,0.3001,438.6368,0.3668,275,0.0088,-275,0.0098,1;0;0,0,438.2456,1.0,946.0,-530.0,1,0
154,439.0036,-18254.0879,-17815.0843,18254.5714,439.4871,0.3001,439.7873,0.3668,275,0.0167,-275,0.2088,0;0.5;0,0,439.3878,0.0,-1011.0,-559.0,1,1
155,440.1541,-18255.2384,-17815.0843,18256.4222,441.3379,0.3001,441.6380,0.3668,-275,0.0167,275,0.0402,0;0.5;0,1,441.2385,1.0,949.0,-526.0,1,1
156,442.0048,-18257.0891,-17815.0843,18257.9728,442.8885,0.3001,443.1886,0.3668,275,0.45,-275,0.5171,0;0.5;0,0,442.7891,0.0,-1018.0,-562.0,1,1
157,443.5555,-18258.6397,-17815.0843,18259.5068,444.4225,0.3001,444.7226,0.3668,275,0.05,-275,0.0582,0;0.5;0,0,444.3315,0.0,-1015.0,-568.0,1,1
158,445.0894,-18260.1737,-17815.0843,18260.7739,445.6897,0.3001,445.9898,0.3668,275,0.2,-275,0.3921,0;0.5;0,0,445.5904,0.0,-1016.0,-563.0,1,1
159,446.3566,-18261.4409,-17815.0843,18262.0745,446.9902,0.3001,447.2903,0.3668,-275,0,275,0.1921,0;0.5;0,1,446.8991,1.0,946.0,-533.0,1,1
160,447.6571,-18262.7414,-17815.0843,18263.4750,448.3908,0.3001,448.6909,0.3668,275,0.2,-275,0.2671,0;0.5;0,0,448.2913,0.0,-1014.0,-565.0,1,1
161,449.0577,-18264.1420,-17815.0843,18264.9590,449.8747,0.3001,450.1748,0.3668,275,0.05,-275,0.0582,0;0.5;0,0,449.7753,0.0,-1010.0,-567.0,1,1
162,450.5416,-18265.6259,-17815.0843,18267.1599,452.0756,0.3001,452.3757,0.3668,-275,0.45,275,0.5171,0;0.5;0,1,451.9846,1.0,946.0,-532.0,1,1
163,452.7425,-18267.8268,-17815.0843,18270.6780,455.5937,0.3001,455.8938,0.3668,275,0.0167,-275,0.0402,0;0.5;0,0,455.5027,0.0,-1018.0,-565.0,1,1
164,456.2606,-18271.3449,-17815.0843,18272.1786,457.0943,0.3001,457.3944,0.3668,275,0.45,-275,0.4582,0;0.5;0,0,457.0032,0.0,-1019.0,-555.0,1,1
165,457.7612,-18272.8455,-17815.0843,18273.8626,458.7783,0.3001,459.0784,0.3668,275,0.05,-275,0.0735,1;0;0,0,458.6872,1.0,946.0,-532.0,1,0
166,459.4452,-18274.5295,-17815.0843,18275.1464,460.0622,0.3001,460.3623,0.3668,-275,0.0167,275,0.2088,0;0.5;0,1,459.9711,1.0,946.0,-532.0,1,1
167,460.7291,-18275.8134,-17815.0843,18276.3969,461.3127,0.3001,461.6128,0.3668,275,0.45,-275,0.4735,0;0.5;0,0,461.2216,0.0,-1012.0,-564.0,1,1
168,461.9796,-18277.0639,-17815.0843,18277.8309,462.7466,0.3001,463.0467,0.3668,-275,0.05,275,0.0735,0;0.5;0,1,462.6554,1.0,946.0,-529.0,1,1
169,463.4135,-18278.4978,-17815.0843,18279.6316,464.5473,0.3001,464.8474,0.3668,-275,0.05,275,0.2421,0;0.5;0,1,464.4479,1.0,946.0,-532.0,1,1
170,465.2142,-18280.2985,-17815.0843,18281.0655,465.9812,0.3001,466.2813,0.3668,-275,0.45,275,0.6421,0;0.5;0,1,465.8818,1.0,946.0,-529.0,1,1
171,466.6482,-18281.7324,-17815.0843,18282.3827,467.2984,0.3001,467.5985,0.3668,275,0,-275,0.1921,0;0.5;0,0,467.2074,0.0,-1011.0,-570.0,1,1
172,467.9654,-18283.0496,-17815.0843,18283.6165,468.5323,0.3001,468.8324,0.3668,-275,0.05,275,0.2421,0;0.5;0,1,468.4413,1.0,947.0,-528.0,1,1
173,469.1992,-18284.2835,-17815.0843,18285.9842,470.8999,0.3001,471.2000,0.3668,-275,0.0088,275,0.0098,1;0;0,1,470.8089,0.0,-1009.0,-569.0,1,0
174,471.5668,-18286.6511,-17815.0843,18287.1513,472.0670,0.3001,472.3671,0.3668,-275,0.2,275,1,0;0.5;0,1,471.9759,1.0,945.0,-529.0,1,1
175,472.7340,-18287.8182,-17815.0843,18288.5185,473.4342,0.3001,473.7344,0.3668,-275,0.2,275,0.3921,0;0.5;0,1,473.3348,1.0,949.0,-524.0,1,1
176,474.1012,-18289.1855,-17815.0843,18290.0692,474.9849,0.3001,475.2850,0.3668,275,0.05,-275,0.0582,1;0;0,0,474.8939,1.0,944.0,-527.0,1,0
177,475.6518,-18290.7361,-17815.0843,18291.3697,476.2854,0.3001,476.5855,0.3668,-275,0.45,275,0.4582,0;0.5;0,1,476.1944,1.0,946.0,-534.0,1,1
178,476.9523,-18292.0366,-17815.0843,18295.3880,480.3037,0.3001,480.6038,0.3668,275,0,-275,0.001,0;0.5;0,0,480.2126,0.0,-996.0,-601.0,1,1
179,480.9706,-18296.0549,-17815.0843,18296.7219,481.6376,0.3001,481.9377,0.3668,-275,0.2,275,1,0;0.5;0,1,481.5465,1.0,945.0,-554.0,1,1
180,482.3045,-18297.3888,-17815.0843,18298.3058,483.2216,0.3001,483.5217,0.3668,-275,0.0167,275,0.0838,0;0.5;0,1,483.1305,1.0,939.0,-545.0,1,1
181,483.8885,-18298.9728,-17815.0843,18299.6397,484.5554,0.3001,484.8555,0.3668,275,0.0088,-275,0.0759,0;0.5;0,0,484.4560,0.0,-998.0,-600.0,1,1
182,485.2224,-18300.3066,-17815.0843,18301.1070,486.0227,0.3001,486.3228,0.3668,275,0.0088,-275,0.0759,0;0.5;0,0,485.9317,0.0,-1003.0,-595.0,1,1
183,486.6896,-18301.7739,-17815.0843,18302.3408,487.2565,0.3001,487.5566,0.3668,-275,0.05,275,0.2421,0;0.5;0,1,487.1654,1.0,936.0,-549.0,1,1
184,487.9235,-18303.0077,-17815.0843,18304.0582,488.9739,0.3001,489.2740,0.3668,-275,0,275,0.0029,1;0;0,1,488.8746,0.0,-999.0,-599.0,1,0
185,489.6408,-18304.7251,-17815.0843,18305.3253,490.2411,0.3001,490.5412,0.3668,-275,0.0088,275,0.0098,1;0;0,1,490.1417,0.0,-999.0,-594.0,1,0
186,490.9080,-18305.9923,-17815.0843,18306.6259,491.5416,0.3001,491.8417,0.3668,275,0.0167,-275,0.0838,0;0.5;0,0,491.4422,0.0,-1001.0,-594.0,1,1
187,492.2085,-18307.2928,-17815.0843,18308.0931,493.0089,0.3001,493.3090,0.3668,-275,0.0167,275,0.0249,0;0.5;0,1,492.9095,1.0,935.0,-542.0,1,1
188,493.6758,-18308.7601,-17815.0843,18311.2611,496.1768,0.3001,496.4769,0.3668,-275,0.0088,275,0.0323,0;0.5;0,1,496.0774,1.0,933.0,-544.0,1,1
189,496.8437,-18311.9280,-17815.0843,18314.0622,498.9779,0.3001,499.2781,0.3668,-275,0,275,0.0029,0;0.5;0,1,498.8869,1.0,936.0,-539.0,1,1
190,499.6449,-18314.7292,-17815.0843,18315.4294,500.3452,0.3001,500.6453,0.3668,275,0.05,-275,0.6,0;0.5;0,0,500.2456,0.0,-1001.0,-589.0,1,1
191,501.0121,-18316.0964,-17815.0843,18316.9134,501.8291,0.3001,502.1292,0.3668,275,0.0167,-275,0.0838,0;0.5;0,0,501.7297,0.0,-991.0,-623.0,1,1
192,502.4960,-18317.5803,-17815.0843,18318.1972,503.1130,0.3001,503.4131,0.3668,275,0.05,-275,0.1171,0;0.5;0,0,503.0136,0.0,-997.0,-602.0,1,1
193,503.7799,-18318.8642,-17815.0843,18320.7149,505.6306,0.3001,505.9308,0.3668,-275,0.0088,275,0.0323,0;0.5;0,1,505.5396,1.0,932.0,-540.0,1,1
194,506.2976,-18321.3819,-17815.0843,18323.0159,507.9316,0.3001,508.2317,0.3668,275,0,-275,0.0029,0;0.5;0,0,507.8322,0.0,-1002.0,-584.0,1,1
195,508.5985,-18323.6828,-17815.0843,18325.2334,510.1491,0.3001,510.4493,0.3668,-275,0,275,0.0082,1;0;0,1,510.0498,0.0,-1008.0,-569.0,1,0
196,510.8161,-18325.9004,-17815.0843,18326.4172,511.3330,0.3001,511.6331,0.3668,-275,0.0167,275,0.0838,0;0.5;0,1,511.2336,1.0,930.0,-538.0,1,1
197,511.9999,-18327.0842,-17815.0843,18327.7011,512.6168,0.3001,512.9169,0.3668,275,0.45,-275,0.4735,0;0.5;0,0,512.5258,0.0,-1004.0,-576.0,1,1
198,513.2837,-18328.3680,-17815.0843,18329.4185,514.3342,0.3001,514.6343,0.3668,275,0.05,-275,0.0582,0;0.5;0,0,514.2347,0.0,-1006.0,-578.0,1,1
199,515.0011,-18330.0854,-17815.0843,18330.8190,515.7347,0.3001,516.0349,0.3668,-275,0.0088,275,0.0117,1;0;0,1,515.6437,0.0,-1004.0,-579.0,1,0
200,516.4017,-18331.4860,-17815.0843,18332.0529,516.9686,0.3001,517.2687,0.3668,-275,0.2,275,0.2082,1;0;0,1,516.8775,0.0,-1004.0,-576.0,1,0
201,517.6355,-18332.7198,-17815.0843,18333.2700,518.1857,0.3001,518.4859,0.3668,275,0.0088,-275,0.2009,0;0.5;0,0,518.0948,0.0,-999.0,-576.0,1,1
202,518.8527,-18333.9370,-17815.0843,18335.0541,519.9698,0.3001,520.2699,0.3668,275,0.05,-275,0.0735,1;0;0,0,519.8788,1.0,932.0,-542.0,1,0
203,520.6367,-18335.7210,-17815.0843,18336.3213,521.2370,0.3001,521.5371,0.3668,-275,0.05,275,0.0582,1;0;0,1,521.1460,0.0,-1005.0,-573.0,1,0
204,521.9039,-18336.9882,-17815.0843,18337.6051,522.5208,0.3001,522.8209,0.3668,275,0.0088,-275,0.0323,1;0;0,0,522.4297,1.0,932.0,-538.0,1,0
205,523.1878,-18338.2720,-17815.0843,18338.7556,523.6713,0.3001,523.9714,0.3668,-275,0.05,275,0.1171,0;0.5;0,1,523.5719,1.0,932.0,-541.0,1,1
206,524.3382,-18339.4225,-17815.0843,18340.2729,525.1886,0.3001,525.4887,0.3668,-275,0.05,275,0.0735,0;0.5;0,1,525.0892,1.0,933.0,-541.0,1,1
207,525.8555,-18340.9398,-17815.0843,18341.8402,526.7559,0.3001,527.0560,0.3668,275,0.05,-275,0.1171,0;0.5;0,0,526.6565,0.0,-1004.0,-568.0,1,1
208,527.4228,-18342.5071,-17815.0843,18343.2241,528.1398,0.3001,528.4399,0.3668,275,0.2,-275,1,0;0.5;0,0,528.0406,0.0,-1006.0,-565.0,1,1
209,528.8067,-18343.8910,-17815.0843,18346.8922,531.8079,0.3001,532.1080,0.3668,275,0.0088,-275,0.0098,1;0;0,0,531.7168,1.0,934.0,-540.0,1,0
210,532.4749,-18347.5591,-17815.0843,18348.3803,533.2960,0.3001,533.5961,0.3626,275,0.2,-275,0.2235,1;0;0,0,533.1924,1.0,932.0,-538.0,1,0
211,533.9588,-18349.0431,-17815.0843,18349.7434,534.6591,0.3001,534.9592,0.3668,275,0,-275,0.0671,1;0;0,0,534.5596,1.0,932.0,-536.0,1,0
212,535.3260,-18350.4103,-17815.0843,18351.1940,536.1097,0.3001,536.4098,0.3668,-275,0.05,275,0.2421,0;0.5;0,1,536.0103,1.0,931.0,-539.0,1,1
213,536.7766,-18351.8609,-17815.0843,18352.8279,537.7437,0.3001,538.0438,0.3668,275,0.05,-275,0.0735,0;0.5;0,0,537.6526,0.0,-1003.0,-567.0,1,1
214,538.4106,-18353.4949,-17815.0843,18354.4119,539.3276,0.3001,539.6278,0.3668,-275,0.05,275,0.2421,1;0;0,1,539.2282,0.0,-1001.0,-573.0,1,0
215,539.9946,-18355.0789,-17815.0843,18355.2122,540.1280,0.3001,540.4281,0.3668,275,0.05,-275,0.0582,1;0;0,0,540.0368,1.0,931.0,-536.0,1,0
216,540.7949,-18355.8792,-17815.0843,18356.7129,541.6286,0.3001,541.9287,0.3668,-275,0.2,275,0.3921,0;0.5;0,1,541.5376,1.0,932.0,-539.0,1,1
217,542.2955,-18357.3798,-17815.0843,18358.0801,542.9958,0.3001,543.2959,0.3668,275,0.45,-275,0.5171,0;0.5;0,0,542.8962,0.0,-1003.0,-569.0,1,1
218,543.6627,-18358.7470,-17815.0843,18359.3139,544.2296,0.3001,544.5297,0.3668,275,0.05,-275,0.2421,0;0.5;0,0,544.1303,0.0,-1001.0,-579.0,1,1
219,544.8966,-18359.9808,-17815.0843,18360.6144,545.5302,0.3001,545.8303,0.3668,275,0.2,-275,0.2671,0;0.5;0,0,545.4391,0.0,-1002.0,-572.0,1,1
220,546.1971,-18361.2814,-17815.0843,18362.1150,547.0308,0.3001,547.3309,0.3668,-275,0.0167,275,0.0838,1;0;0,1,546.9313,0.0,-1004.0,-569.0,1,0
221,547.6977,-18362.7820,-17815.0843,18363.1988,548.1145,0.3001,548.4147,0.3668,-275,0.0167,275,0.0838,0;0.5;0,1,548.0234,1.0,933.0,-532.0,1,1
222,548.7815,-18363.8658,-17815.0843,18365.5664,550.4822,0.3001,550.7823,0.3668,-275,0,275,0.1921,0;0.5;0,1,550.3911,1.0,932.0,-531.0,1,1
223,551.1491,-18366.2334,-17815.0843,18366.9837,551.8994,0.3001,552.1995,0.3668,-275,0.2,275,0.2671,0;0.5;0,1,551.8084,1.0,937.0,-527.0,1,1
224,552.5663,-18367.6506,-17815.0843,18368.3009,553.2166,0.3001,553.5167,0.3668,275,0.05,-275,0.1171,0;0.5;0,0,553.1254,0.0,-1003.0,-575.0,1,1
225,553.8835,-18368.9678,-17815.0843,18370.2350,555.1507,0.3001,555.4508,0.3668,275,0.45,-275,0.4582,1;0;0,0,555.0597,1.0,935.0,-527.0,1,0
226,555.8177,-18370.9019,-17815.0843,18371.8523,556.7680,0.3001,557.0682,0.3668,-275,0.0088,275,0.017,0;0.5;0,1,556.6686,1.0,937.0,-524.0,1,1
227,557.4350,-18372.5193,-17815.0843,18375.3704,560.2861,0.3001,560.5863,0.3668,-275,0,275,0.0082,1;0;0,1,560.1867,0.0,-1004.0,-560.0,1,0
228,560.9531,-18376.0374,-17815.0843,18376.9877,561.9035,0.3001,562.2036,0.3668,-275,0.05,275,0.2421,0;0.5;0,1,561.8125,1.0,938.0,-523.0,1,1
229,562.5704,-18377.6547,-17815.0843,18378.2549,563.1706,0.3001,563.4708,0.3668,-275,0.2,275,0.2235,1;0;0,1,563.0713,0.0,-1004.0,-560.0,1,0
230,563.8376,-18378.9219,-17815.0843,18379.4888,564.4045,0.3001,564.7046,0.3668,-275,0.05,275,0.0582,0;0.5;0,1,564.3133,1.0,939.0,-519.0,1,1
231,565.0714,-18380.1557,-17815.0843,18381.1061,566.0218,0.3001,566.3219,0.3668,-275,0,275,0.0029,0;0.5;0,1,565.9223,1.0,937.0,-520.0,1,1
232,566.6887,-18381.7730,-17815.0843,18382.4900,567.4057,0.3001,567.7058,0.3668,-275,0.05,275,0.6,0;0.5;0,1,567.3147,1.0,936.0,-522.0,1,1
233,568.0726,-18383.1569,-17815.0843,18384.1406,569.0564,0.3001,569.3565,0.3668,-275,0.0167,275,0.0402,0;0.5;0,1,568.9569,1.0,940.0,-516.0,1,1
234,569.7233,-18384.8076,-17815.0843,18385.9747,570.8904,0.3001,571.1906,0.3668,-275,0.0088,275,0.0117,0;0.5;0,1,570.7993,1.0,938.0,-513.0,1,1
235,571.5574,-18386.6417,-17815.0843,18387.7088,572.6245,0.3001,572.9246,0.3668,-275,0,275,0.001,0;0.5;0,1,572.5250,1.0,939.0,-517.0,1,1
236,573.2914,-18388.3757,-17815.0843,18389.0593,573.9750,0.3001,574.2751,0.3668,-275,0.2,275,1,0;0.5;0,1,573.8757,1.0,937.0,-521.0,1,1
237,574.6420,-18389.7262,-17815.0843,18390.2765,575.1922,0.3001,575.4923,0.3668,275,0.0167,-275,0.2088,0;0.5;0,0,575.0928,0.0,-1014.0,-550.0,1,1
238,575.8591,-18390.9434,-17815.0843,18391.5270,576.4427,0.3001,576.7428,0.3668,275,0.2,-275,0.75,0;0.5;0,0,576.3518,0.0,-1026.0,-542.0,1,1
239,577.1096,-18392.1939,-17815.0843,18393.1776,578.0934,0.3001,578.3935,0.3668,-275,0.2,275,0.3921,0;0.5;0,1,577.9940,1.0,937.0,-522.0,1,1
240,578.7603,-18393.8446,-17815.0843,18394.6449,579.5606,0.3001,579.8607,0.3668,-275,0,275,0.1921,0;0.5;0,1,579.4696,1.0,937.0,-525.0,1,1
241,580.2276,-18395.3118,-17815.0843,18399.7636,584.6794,0.3001,584.9795,0.3668,-275,0,275,0.001,0;0.5;0,1,584.5884,1.0,937.0,-536.0,1,1
242,585.3463,-18400.4306,-17815.0843,18401.1475,586.0633,0.3001,586.3634,0.3668,275,0.0167,-275,0.2088,0;0.5;0,0,585.9639,0.0,-1012.0,-565.0,1,1
243,586.7302,-18401.8145,-17815.0843,18402.6481,587.5639,0.3001,587.8640,0.3668,-275,0.05,275,0.0529,1;0;0,1,587.4644,0.0,-1014.0,-563.0,1,0
244,588.2308,-18403.3151,-17815.0843,18407.1666,592.0824,0.3001,592.3825,0.3668,275,0.0167,-275,0.0177,0;0.5;0,0,591.9830,0.0,-1013.0,-548.0,1,1
245,592.7493,-18407.8336,-17815.0843,18408.4171,593.3329,0.3001,593.6330,0.3668,-275,0,275,0.1921,0;0.5;0,1,593.2334,1.0,937.0,-536.0,1,1
246,593.9998,-18409.0841,-17815.0843,18409.8677,594.7835,0.3001,595.0836,0.3668,-275,0.45,275,0.4735,1;0;0,1,594.6840,0.0,-1009.0,-556.0,1,0
247,595.4504,-18410.5347,-17815.0843,18410.9348,595.8506,0.3001,596.1507,0.3668,275,0,-275,0.0671,1;0;0,0,595.7595,1.0,941.0,-527.0,1,0
248,596.5175,-18411.6018,-17815.0843,18412.0186,596.9343,0.3001,597.2344,0.3668,275,0.2,-275,0.2235,1;0;0,0,596.8433,1.0,939.0,-529.0,1,0
249,597.6013,-18412.6855,-17815.0843,18413.1357,598.0514,0.3001,598.3516,0.3668,275,0.05,-275,0.0735,0;0.5;0,0,597.9604,0.0,-1007.0,-561.0,1,1
250,598.7184,-18413.8027,-17815.0843,18414.6864,599.6021,0.3001,599.9022,0.3668,-275,0.05,275,0.1171,0;0.5;0,1,599.5111,1.0,939.0,-528.0,1,1
251,600.2690,-18415.3533,-17815.0843,18416.3704,601.2861,0.3001,601.5862,0.3668,-275,0.05,275,0.0735,0;0.5;0,1,601.1951,1.0,939.0,-527.0,1,1
252,601.9530,-18417.0373,-17815.0843,18417.7543,602.6700,0.3001,602.9701,0.3668,-275,0.05,275,0.0529,0;0.5;0,1,602.5706,1.0,941.0,-523.0,1,1
253,603.3369,-18418.4212,-17815.0843,18419.1715,604.0872,0.3001,604.3873,0.3668,275,0.2,-275,0.2082,0;0.5;0,0,603.9877,0.0,-1008.0,-558.0,1,1
254,604.7542,-18419.8384,-17815.0843,18420.9055,605.8213,0.3001,606.1214,0.3668,-275,0.0088,275,0.017,1;0;0,1,605.7302,0.0,-1009.0,-554.0,1,0
255,606.4882,-18421.5725,-17815.0843,18421.6725,606.5882,0.3001,606.8884,0.3668,-275,0.45,275,0.6421,0;0.5;0,1,606.4888,1.0,941.0,-519.0,1,1
256,607.2552,-18422.3395,-17815.0843,18422.8397,607.7554,0.3001,608.0555,0.3668,275,0.45,-275,0.4582,0;0.5;0,0,607.6560,0.0,-1010.0,-546.0,1,1
257,608.4223,-18423.5066,-17815.0843,18424.1235,609.0392,0.3001,609.3394,0.3668,275,0,-275,0.0029,0;0.5;0,0,608.9398,0.0,-1016.0,-551.0,1,1
258,609.7062,-18424.7905,-17815.0843,18425.6908,610.6065,0.3001,610.9067,0.3668,-275,0,275,0.0671,0;0.5;0,1,610.5072,1.0,941.0,-520.0,1,1
259,611.2735,-18426.3578,-17815.0843,18427.0247,611.9404,0.3001,612.2405,0.3668,275,0.0167,-275,0.2088,0;0.5;0,0,611.8410,0.0,-1014.0,-552.0,1,1
260,612.6073,-18427.6916,-17815.0843,18428.3419,613.2576,0.3001,613.5577,0.3668,275,0.45,-275,1,0;0.5;0,0,613.1582,0.0,-1015.0,-550.0,1,1
261,613.9245,-18429.0088,-17815.0843,18429.9592,614.8749,0.3001,615.1750,0.3668,275,0.0167,-275,0.0838,0;0.5;0,0,614.7755,0.0,-1011.0,-553.0,1,1
262,615.5419,-18430.6261,-17815.0843,18431.2431,616.1588,0.3001,616.4589,0.3668,275,0,-275,0.1921,0;0.5;0,0,616.0594,0.0,-1017.0,-554.0,1,1
263,616.8257,-18431.9100,-17815.0843,18433.5773,618.4931,0.3001,618.7932,0.3668,-275,0.0088,275,0.017,0;0.5;0,1,618.4019,1.0,937.0,-520.0,1,1
264,619.1600,-18434.2443,-17815.0843,18434.9612,619.8770,0.3001,620.1771,0.3668,-275,0.05,275,0.6,0;0.5;0,1,619.7860,1.0,939.0,-521.0,1,1
265,620.5439,-18435.6282,-17815.0843,18436.5786,621.4943,0.3001,621.7944,0.3668,275,0.0167,-275,0.0402,0;0.5;0,0,621.4031,0.0,-1012.0,-547.0,1,1
266,622.1612,-18437.2455,-17815.0843,18438.4793,623.3950,0.3001,623.6952,0.3668,275,0,-275,0.001,0;0.5;0,0,623.3040,0.0,-1014.0,-542.0,1,1
267,624.0620,-18439.1463,-17815.0843,18440.1300,625.0457,0.3001,625.3458,0.3668,275,0.05,-275,0.0529,0;0.5;0,0,624.9464,0.0,-1019.0,-535.0,1,1
268,625.7127,-18440.7969,-17815.0843,18441.8474,626.7631,0.3001,627.0632,0.3668,-275,0,275,0.0082,1;0;0,1,626.6637,0.0,-1022.0,-529.0,1,0
269,627.4300,-18442.5143,-17815.0843,18443.3146,628.2303,0.3001,628.5305,0.3668,275,0.2,-275,0.2671,0;0.5;0,0,628.1310,0.0,-1025.0,-522.0,1,1
270,628.8973,-18443.9816,-17815.0843,18446.4659,631.3816,0.3001,631.6817,0.3668,-275,0.0167,275,0.0402,0;0.5;0,1,631.2906,1.0,941.0,-518.0,1,1
271,632.0486,-18447.1328,-17815.0843,18448.4000,633.3157,0.3001,633.6159,0.3668,275,0.0167,-275,0.0402,0;0.5;0,0,633.2164,0.0,-1027.0,-532.0,1,1
272,633.9827,-18449.0670,-17815.0843,18452.1849,637.1006,0.3001,637.4007,0.3668,-275,0.2,275,0.2671,1;0;0,1,637.0095,0.0,-1019.0,-538.0,1,0
273,637.7675,-18452.8518,-17815.0843,18453.4521,638.3678,0.3001,638.6679,0.3668,275,0.45,-275,1,0;0.5;0,0,638.2767,0.0,-1026.0,-522.0,1,1
274,639.0347,-18454.1190,-17815.0843,18454.9027,639.8184,0.3001,640.1185,0.3668,275,0.05,-275,0.0582,1;0;0,0,639.7273,1.0,941.0,-518.0,1,0
275,640.4853,-18455.5696,-17815.0843,18456.1532,641.0689,0.3001,641.3690,0.3668,-275,0.0088,275,0.0117,0;0.5;0,1,640.9778,1.0,943.0,-515.0,1,1
276,641.7358,-18456.8201,-17815.0843,18458.2540,643.1697,0.3001,643.4698,0.3668,275,0.0088,-275,0.0117,0;0.5;0,0,643.0703,0.0,-1023.0,-527.0,1,1
277,643.8367,-18458.9209,-17815.0843,18459.9714,644.8871,0.3001,645.1872,0.3668,275,0.0088,-275,0.0098,0;0.5;0,0,644.7961,0.0,-1024.0,-528.0,1,1
278,645.5540,-18460.6383,-17815.0843,18461.5053,646.4210,0.3001,646.7212,0.3668,-275,0.45,275,1,0;0.5;0,1,646.3299,1.0,947.0,-516.0,1,1
279,647.0880,-18462.1723,-17815.0843,18464.6233,649.5390,0.3001,649.8391,0.3668,-275,0,275,0.0082,1;0;0,1,649.4478,0.0,-1020.0,-527.0,1,0
280,650.2059,-18465.2902,-17815.0843,18466.8408,651.7565,0.3001,652.0567,0.3668,-275,0.0088,275,0.0323,0;0.5;0,1,651.6571,1.0,944.0,-522.0,1,1
281,652.4235,-18467.5078,-17815.0843,18468.2581,653.1738,0.3001,653.4739,0.3668,275,0.05,-275,0.1171,0;0.5;0,0,653.0744,0.0,-1018.0,-545.0,1,1
282,653.8407,-18468.9250,-17815.0843,18469.5753,654.4910,0.3001,654.7911,0.3668,-275,0.0167,275,0.2088,0;0.5;0,1,654.3916,1.0,944.0,-524.0,1,1
283,655.1579,-18470.2422,-17815.0843,18470.7091,655.6248,0.3001,655.9249,0.3668,-275,0,275,0.1921,0;0.5;0,1,655.5253,1.0,943.0,-524.0,1,1
284,656.2917,-18471.3760,-17815.0843,18472.2430,657.1587,0.3001,657.4588,0.3668,275,0.0088,-275,0.0117,0;0.5;0,0,657.0593,0.0,-1019.0,-539.0,1,1
285,657.8257,-18472.9099,-17815.0843,18474.1605,659.0762,0.3001,659.3763,0.3668,275,0.05,-275,0.0529,1;0;0,0,658.9768,1.0,945.0,-518.0,1,0
286,659.7431,-18474.8274,-17815.0843,18475.4276,660.3433,0.3001,660.6435,0.3668,-275,0.0088,275,0.0098,0;0.5;0,1,660.2439,1.0,946.0,-516.0,1,1
287,661.0103,-18476.0946,-17815.0843,18478.0120,662.9277,0.3001,663.2278,0.3668,275,0.0088,-275,0.017,1;0;0,0,662.8367,1.0,945.0,-517.0,1,0
288,663.5947,-18478.6789,-17815.0843,18479.4126,664.3283,0.3001,664.6284,0.3668,275,0.45,-275,0.4735,0;0.5;0,0,664.2373,0.0,-1028.0,-528.0,1,1
289,664.9952,-18480.0795,-17815.0843,18480.2129,665.1286,0.3001,665.4287,0.3668,275,0.45,-275,0.4735,0;0.5;0,0,665.0293,0.0,-1030.0,-532.0,1,1
290,665.7956,-18480.8798,-17815.0843,18481.5468,666.4625,0.3001,666.7626,0.3668,275,0.0088,-275,0.2009,0;0.5;0,0,666.3715,0.0,-1025.0,-533.0,1,1
291,667.1294,-18482.2137,-17815.0843,18482.6472,667.5629,0.3001,667.8631,0.3668,275,0,-275,0.0671,0;0.5;0,0,667.4719,0.0,-1027.0,-535.0,1,1
292,668.2299,-18483.3142,-17815.0843,18483.7477,668.6634,0.3001,668.9635,0.3668,275,0.0167,-275,0.2088,0;0.5;0,0,668.5640,0.0,-1032.0,-532.0,1,1
293,669.3303,-18484.4146,-17815.0843,18485.1816,670.0973,0.3001,670.3974,0.3668,275,0.0167,-275,0.0249,0;0.5;0,0,669.9979,0.0,-1034.0,-529.0,1,1
294,670.7642,-18485.8485,-17815.0843,18487.0990,672.0147,0.3001,672.3149,0.3668,-275,0.0167,275,0.0249,1;0;0,1,671.9237,0.0,-1030.0,-527.0,1,0
295,672.6817,-18487.7660,-17815.0843,18488.9331,673.8488,0.3001,674.1489,0.3668,275,0.05,-275,0.0529,1;0;0,0,673.7495,1.0,945.0,-522.0,1,0
296,674.5158,-18489.6000,-17815.0843,18490.0169,674.9326,0.3001,675.2327,0.3668,275,0.05,-275,0.2421,0;0.5;0,0,674.8416,0.0,-1029.0,-528.0,1,1
297,675.5995,-18490.6838,-17815.0843,18491.4841,676.3998,0.3001,676.7000,0.3668,-275,0.05,275,0.0529,1;0;0,1,676.3004,0.0,-1033.0,-517.0,1,0
298,677.0668,-18492.1511,-17815.0843,18492.5179,677.4336,0.3001,677.7337,0.3668,-275,0.45,275,0.4582,1;0;0,1,677.3341,0.0,-1032.0,-524.0,1,0
299,678.1005,-18493.1848,-17815.0843,18493.9185,678.8342,0.3001,679.1343,0.3668,-275,0.2,275,0.75,0;0.5;0,1,678.7432,1.0,944.0,-527.0,1,1
300,679.5011,-18494.5854,-17815.0843,18495.6358,680.5515,0.3001,680.8517,0.3668,275,0.0167,-275,0.0196,0;0.5;0,0,680.4604,0.0,-1028.0,-525.0,1,1
301,681.2185,-18496.3028,-17815.0843,18500.0876,685.0033,0.3001,685.3035,0.3668,-275,0.05,275,0.0529,1;0;0,1,684.9123,0.0,-1048.0,-506.0,1,0
302,685.6703,-18500.7546,-17815.0843,18501.6216,686.5373,0.3001,686.8374,0.3668,-275,0,275,0.0671,0;0.5;0,1,686.4462,1.0,949.0,-503.0,1,1
303,687.2042,-18502.2885,-17815.0843,18503.3890,688.3047,0.3001,688.6048,0.3668,-275,0.05,275,0.1171,0;0.5;0,1,688.2052,1.0,948.0,-503.0,1,1
304,688.9716,-18504.0559,-17815.0843,18504.7562,689.6719,0.3001,689.9720,0.3668,-275,0.05,275,0.0529,1;0;0,1,689.5725,0.0,-1032.0,-508.0,1,0
305,690.3388,-18505.4231,-17815.0843,18506.3902,691.3059,0.3001,691.6060,0.3668,275,0.0167,-275,0.0838,0;0.5;0,0,691.2149,0.0,-1036.0,-511.0,1,1
306,691.9728,-18507.0571,-17815.0843,18507.5907,692.5064,0.3001,692.8065,0.3668,275,0,-275,0.1921,0;0.5;0,0,692.4154,0.0,-1043.0,-515.0,1,1
307,693.1733,-18508.2576,-17815.0843,18508.8578,693.7736,0.3001,694.0737,0.3668,275,0,-275,0.1921,0;0.5;0,0,693.6825,0.0,-1045.0,-511.0,1,1
308,694.4405,-18509.5248,-17815.0843,18510.0750,694.9907,0.3001,695.2908,0.3668,275,0.0088,-275,0.2009,0;0.5;0,0,694.8914,0.0,-1045.0,-512.0,1,1
309,695.6576,-18510.7419,-17815.0843,18511.3922,696.3079,0.3001,696.6080,0.3668,275,0.0167,-275,0.0249,0;0.5;0,0,696.2084,0.0,-1047.0,-503.0,1,1
310,696.9748,-18512.0591,-17815.0843,18512.6927,697.6084,0.3001,697.9086,0.3668,-275,0.05,275,0.0582,0;0.5;0,1,697.5090,1.0,948.0,-502.0,1,1
311,698.2754,-18513.3597,-17815.0843,18514.7936,699.7093,0.3001,700.0094,0.3668,275,0.0167,-275,0.0177,1;0;0,0,699.6183,1.0,948.0,-503.0,1,0
312,700.3762,-18515.4605,-17815.0843,18516.5610,701.4767,0.3001,701.7768,0.3668,-275,0.2,275,0.2082,0;0.5;0,1,701.3773,1.0,949.0,-503.0,1,1
313,702.1436,-18517.2279,-17815.0843,18517.7948,702.7105,0.3001,703.0106,0.3668,-275,0.0088,275,0.2009,0;0.5;0,1,702.6194,1.0,947.0,-503.0,1,1
314,703.3774,-18518.4617,-17815.0843,18519.4455,704.3612,0.3001,704.6613,0.3668,-275,0.0167,275,0.0402,0;0.5;0,1,704.2617,1.0,950.0,-501.0,1,1
315,705.0281,-18520.1124,-17815.0843,18520.7126,705.6284,0.3001,705.9285,0.3668,275,0.0088,-275,0.0759,0;0.5;0,0,705.5289,0.0,-1044.0,-505.0,1,1
316,706.2953,-18521.3796,-17815.0843,18521.9631,706.8789,0.3001,707.1790,0.3668,275,0.0088,-275,0.0323,0;0.5;0,0,706.7794,0.0,-1052.0,-496.0,1,1
317,707.5458,-18522.6301,-17815.0843,18523.1136,708.0293,0.3001,708.3294,0.3668,275,0.0167,-275,0.0402,0;0.5;0,0,707.9384,0.0,-1051.0,-495.0,1,1
318,708.6963,-18523.7805,-17815.0843,18524.4475,709.3632,0.3001,709.6633,0.3668,-275,0.45,275,0.5171,1;0;0,1,709.2638,0.0,-1053.0,-495.0,1,0
319,710.0301,-18525.1144,-17815.0843,18526.6984,711.6141,0.3001,711.9142,0.3668,-275,0,275,0.0235,0;0.5;0,1,711.5148,1.0,949.0,-505.0,1,1
320,712.2810,-18527.3653,-17815.0843,18528.1365,713.0522,0.2960,713.3481,0.3668,-275,0.45,275,0.6421,0;0.5;0,1,712.9571,1.0,950.0,-518.0,1,1
321,713.7150,-18528.7992,-17815.0843,18529.4328,714.3485,0.3001,714.6487,0.3668,-275,0.2,275,0.2082,0;0.5;0,1,714.2492,1.0,951.0,-509.0,1,1
322,715.0155,-18530.0998,-17815.0843,18530.7667,715.6824,0.3001,715.9825,0.3668,275,0.0088,-275,0.0759,0;0.5;0,0,715.5914,0.0,-1048.0,-493.0,1,1
323,716.3494,-18531.4336,-17815.0843,18532.0005,716.9163,0.3001,717.2164,0.3668,275,0.0088,-275,0.0759,0;0.5;0,0,716.8253,0.0,-1057.0,-503.0,1,1
324,717.5832,-18532.6675,-17815.0843,18534.9684,719.8841,0.3001,720.1842,0.3668,-275,0.0167,275,0.0196,1;0;0,1,719.7932,0.0,-1047.0,-504.0,1,0
325,720.5511,-18535.6353,-17815.0843,18536.3023,721.2180,0.3001,721.5181,0.3668,-275,0.05,275,0.1171,0;0.5;0,1,721.1184,1.0,951.0,-493.0,1,1
326,721.8849,-18536.9692,-17815.0843,18537.6695,722.5852,0.3001,722.8853,0.3668,275,0.2,-275,0.2082,1;0;0,0,722.4858,1.0,948.0,-504.0,1,0
327,723.2522,-18538.3364,-17815.0843,18538.8366,723.7524,0.3001,724.0525,0.3668,-275,0,275,0.0671,1;0;0,1,723.6529,0.0,-1052.0,-488.0,1,0
328,724.4193,-18539.5036,-17815.0843,18539.7203,724.6360,0.3001,724.9362,0.3668,-275,0.0167,275,0.0177,1;0;0,1,724.5449,0.0,-1051.0,-489.0,1,0
329,725.3030,-18540.3873,-17815.0843,18540.4873,725.4030,0.3001,725.7031,0.3668,275,0.05,-275,0.6,1;0;0,0,725.3036,1.0,951.0,-504.0,1,0
330,726.0700,-18541.1542,-17815.0843,18541.8879,726.8036,0.3001,727.1037,0.3668,275,0.0167,-275,0.0177,0;0.5;0,0,726.7125,0.0,-1051.0,-487.0,1,1
331,727.4705,-18542.5548,-17815.0843,18543.0217,727.9374,0.3001,728.2375,0.3668,275,0.0167,-275,0.0838,0;0.5;0,0,727.8380,0.0,-1049.0,-484.0,1,1
332,728.6043,-18543.6886,-17815.0843,18544.3222,729.2379,0.3001,729.5380,0.3668,-275,0.45,275,0.6421,0;0.5;0,1,729.1468,1.0,951.0,-507.0,1,1
333,729.9048,-18544.9891,-17815.0843,18548.5072,733.4229,0.3001,733.7231,0.3668,275,0,-275,0.0082,0;0.5;0,0,733.3235,0.0,-1052.0,-474.0,1,1
334,734.0899,-18549.1742,-17815.0843,18550.3079,735.2237,0.3001,735.5238,0.3668,275,0.05,-275,0.1171,0;0.5;0,0,735.1243,0.0,-1059.0,-463.0,1,1
335,735.8906,-18550.9749,-17815.0843,18551.6418,736.5575,0.3001,736.8577,0.3668,-275,0.0088,275,0.0759,0;0.5;0,1,736.4581,1.0,951.0,-504.0,1,1
336,737.2245,-18552.3088,-17815.0843,18553.2258,738.1415,0.3001,738.4416,0.3668,-275,0.05,275,0.0735,1;0;0,1,738.0421,0.0,-1054.0,-474.0,1,0
337,738.8084,-18553.8927,-17815.0843,18554.7431,739.6588,0.3001,739.9589,0.3668,275,0.2,-275,0.2235,1;0;0,0,739.5594,1.0,956.0,-498.0,1,0
338,740.3257,-18555.4100,-17815.0843,18556.0269,740.9426,0.3001,741.2428,0.3668,275,0,-275,0.0029,1;0;0,0,740.8516,1.0,952.0,-506.0,1,0
339,741.6096,-18556.6939,-17815.0843,18557.3941,742.3099,0.3001,742.6100,0.3668,-275,0,275,0.001,0;0.5;0,1,742.2187,1.0,953.0,-504.0,1,1
340,742.9768,-18558.0611,-17815.0843,18558.7280,743.6437,0.3001,743.9439,0.3668,-275,0.45,275,1,0;0.5;0,1,743.5443,1.0,956.0,-507.0,1,1
341,744.3107,-18559.3950,-17815.0843,18560.1786,745.0943,0.3001,745.3944,0.3668,-275,0.05,275,0.0529,0;0.5;0,1,744.9949,1.0,958.0,-503.0,1,1
342,745.7613,-18560.8455,-17815.0843,18562.2795,747.1952,0.3001,747.4953,0.3668,275,0.0167,-275,0.0249,1;0;0,0,747.1042,1.0,956.0,-499.0,1,0
343,747.8621,-18562.9464,-17815.0843,18565.9810,750.8967,0.3001,751.1968,0.3668,-275,0.05,275,0.0582,1;0;0,1,750.8057,0.0,-1072.0,-440.0,1,0
344,751.5636,-18566.6479,-17815.0843,18568.4653,753.3810,0.3001,753.6811,0.3668,-275,0.0167,275,0.0402,0;0.5;0,1,753.2814,1.0,948.0,-494.0,1,1
345,754.0479,-18569.1322,-17815.0843,18569.7158,754.6315,0.3001,754.9316,0.3668,275,0.0167,-275,0.2088,0;0.5;0,0,754.5322,0.0,-1059.0,-459.0,1,1
346,755.2985,-18570.3827,-17815.0843,18572.6170,757.5327,0.3001,757.8328,0.3668,-275,0,275,0.0029,1;0;0,1,757.4333,0.0,-1058.0,-463.0,1,0
347,758.1996,-18573.2839,-17815.0843,18573.8175,758.7332,0.3001,759.0333,0.3668,275,0.05,-275,0.2421,0;0.5;0,0,758.6337,0.0,-1061.0,-455.0,1,1
348,759.4001,-18574.4844,-17815.0843,18576.0684,760.9841,0.3001,761.2842,0.3668,275,0.05,-275,0.0529,1;0;0,0,760.8846,1.0,947.0,-480.0,1,0
349,761.6510,-18576.7353,-17815.0843,18576.9854,761.9011,0.3001,762.2012,0.3668,275,0.2,-275,1,0;0.5;0,0,761.8017,0.0,-1060.0,-459.0,1,1
350,762.5681,-18577.6523,-17815.0843,18578.1859,763.1016,0.3001,763.4017,0.3668,-275,0.0088,275,0.0323,1;0;0,1,763.0022,0.0,-1063.0,-452.0,1,0
351,763.7685,-18578.8528,-17815.0843,18579.4031,764.3188,0.3001,764.6189,0.3668,275,0,-275,0.0671,0;0.5;0,0,764.2277,0.0,-1059.0,-459.0,1,1
352,764.9857,-18580.0700,-17815.0843,18582.2542,767.1699,0.3001,767.4700,0.3668,275,0.0088,-275,0.017,0;0.5;0,0,767.0705,0.0,-1069.0,-444.0,1,1
353,767.8369,-18582.9211,-17815.0843,18583.6381,768.5538,0.3001,768.8539,0.3668,-275,0.45,275,0.4735,1;0;0,1,768.4629,0.0,-1068.0,-443.0,1,0
354,769.2208,-18584.3050,-17815.0843,18585.1387,770.0544,0.3001,770.3545,0.3668,275,0,-275,0.0235,1;0;0,0,769.9551,1.0,949.0,-482.0,1,0
355,770.7214,-18585.8056,-17815.0843,18586.2058,771.1215,0.3001,771.4216,0.3668,275,0.05,-275,0.1171,0;0.5;0,0,771.0221,0.0,-1074.0,-438.0,1,1
356,771.7885,-18586.8727,-17815.0843,18588.4234,773.3391,0.3001,773.6392,0.3668,275,0.0167,-275,0.0177,0;0.5;0,0,773.2480,0.0,-1077.0,-431.0,1,1
357,774.0060,-18589.0903,-17815.0843,18590.5909,775.5066,0.3001,775.8068,0.3668,-275,0.0088,275,0.017,1;0;0,1,775.4072,0.0,-1076.0,-430.0,1,0
358,776.1736,-18591.2579,-17815.0843,18591.5413,776.4570,0.3001,776.7571,0.3668,275,0,-275,0.0082,1;0;0,0,776.3662,1.0,951.0,-485.0,1,0
359,777.1240,-18592.2082,-17815.0843,18592.4583,777.3741,0.3001,777.6742,0.3668,-275,0.0167,275,0.0177,1;0;0,1,777.2831,0.0,-1073.0,-438.0,1,0
360,778.0410,-18593.1253,-17815.0843,18593.2253,778.1410,0.3001,778.4412,0.3668,-275,0.2,275,0.2671,1;0;0,1,778.0416,0.0,-1076.0,-440.0,1,0
361,778.8080,-18593.8923,-17815.0843,18594.0590,778.9747,0.3001,779.2748,0.3668,-275,0.0167,275,0.0196,0;0.5;0,1,778.8837,1.0,953.0,-475.0,1,1
362,779.6416,-18594.7259,-17815.0843,18595.1428,780.0585,0.3001,780.3586,0.3668,-275,0.2,275,0.3921,0;0.5;0,1,779.9675,1.0,953.0,-480.0,1,1
363,780.7254,-18595.8097,-17815.0843,18596.2599,781.1756,0.3001,781.4757,0.3668,-275,0.05,275,0.2421,0;0.5;0,1,781.0761,1.0,949.0,-482.0,1,1
364,781.8425,-18596.9268,-17815.0843,18597.3270,782.2427,0.3001,782.5428,0.3668,275,0.2,-275,0.3921,1;0;0,0,782.1433,1.0,950.0,-484.0,1,0
365,782.9096,-18597.9939,-17815.0843,18599.0443,783.9601,0.3001,784.2602,0.3668,275,0.0167,-275,0.0402,0;0.5;0,0,783.8605,0.0,-1073.0,-432.0,1,1
366,784.6270,-18599.7113,-17815.0843,18600.3949,785.3106,0.3001,785.6107,0.3668,-275,0.2,275,0.2235,1;0;0,1,785.2113,0.0,-1077.0,-431.0,1,0
367,785.9775,-18601.0618,-17815.0843,18603.2127,788.1284,0.3001,788.4285,0.3668,275,0.0088,-275,0.0323,1;0;0,0,788.0374,1.0,951.0,-476.0,1,0
368,788.7953,-18603.8796,-17815.0843,18603.9797,788.8954,0.3001,789.1955,0.3668,275,0.0088,-275,0.0759,0;0.5;0,0,788.7962,0.0,-1072.0,-437.0,1,1
369,789.5623,-18604.6466,-17815.0843,18605.7137,790.6294,0.3001,790.9295,0.3668,-275,0.0088,275,0.0098,1;0;0,1,790.5299,0.0,-1071.0,-438.0,1,0
370,791.2964,-18606.3806,-17815.0843,18606.5140,791.4297,0.3001,791.7299,0.3668,275,0,-275,0.0671,1;0;0,0,791.3303,1.0,948.0,-475.0,1,0
371,792.0967,-18607.1810,-17815.0843,18607.5144,792.4301,0.3001,792.7303,0.3668,275,0.0167,-275,0.0249,1;0;0,0,792.3391,1.0,948.0,-485.0,1,0
372,793.0971,-18608.1814,-17815.0843,18608.2814,793.1971,0.3001,793.4972,0.3668,275,0.0167,-275,0.0402,0;0.5;0,0,793.1061,0.0,-1068.0,-443.0,1,1
373,793.8641,-18608.9483,-17815.0843,18609.4986,794.4143,0.3001,794.7144,0.3668,-275,0,275,0.0082,0;0.5;0,1,794.3232,1.0,951.0,-493.0,1,1
374,795.0812,-18610.1655,-17815.0843,18610.9158,795.8315,0.3001,796.1316,0.3668,275,0.05,-275,0.0735,1;0;0,0,795.7321,1.0,946.0,-489.0,1,0
375,796.4985,-18611.5827,-17815.0843,18612.0996,797.0153,0.3001,797.3155,0.3668,275,0.45,-275,1,0;0.5;0,0,796.9159,0.0,-1072.0,-440.0,1,1
376,797.6823,-18612.7666,-17815.0843,18613.5169,798.4326,0.3001,798.7327,0.3668,-275,0.0167,275,0.0838,0;0.5;0,1,798.3415,1.0,945.0,-493.0,1,1
377,799.0995,-18614.1838,-17815.0843,18614.6506,799.5664,0.3001,799.8665,0.3668,-275,0.05,275,0.6,0;0.5;0,1,799.4670,1.0,946.0,-493.0,1,1
378,800.2333,-18615.3176,-17815.0843,18616.8182,801.7339,0.3001,802.0340,0.3668,-275,0,275,0.0029,1;0;0,1,801.6429,0.0,-1067.0,-442.0,1,0
379,802.4008,-18617.4851,-17815.0843,18617.6185,802.5342,0.3001,802.8344,0.3668,275,0,-275,0.1921,1;0;0,0,802.4348,1.0,951.0,-488.0,1,0
380,803.2012,-18618.2855,-17815.0843,18619.2859,804.2016,0.3001,804.5017,0.3668,275,0,-275,0.0235,0;0.5;0,0,804.1022,0.0,-1069.0,-440.0,1,1
381,804.8685,-18619.9528,-17815.0843,18620.3530,805.2687,0.3001,805.5688,0.3668,-275,0.45,275,0.6421,1;0;0,1,805.1692,0.0,-1067.0,-445.0,1,0
382,805.9356,-18621.0199,-17815.0843,18621.4034,806.3191,0.3001,806.6192,0.3668,-275,0.45,275,0.4582,0;0.5;0,1,806.2281,1.0,951.0,-480.0,1,1
383,806.9860,-18622.0703,-17815.0843,18625.3550,810.2707,0.3001,810.5708,0.3668,-275,0.0088,275,0.0323,1;0;0,1,810.1796,0.0,-1070.0,-440.0,1,0
384,810.9376,-18626.0219,-17815.0843,18626.5596,811.4753,0.3001,811.7755,0.3626,275,0.0088,-275,0.0323,1;0;0,0,811.3717,1.0,954.0,-478.0,1,0
385,812.1381,-18627.2224,-17815.0843,18627.4558,812.3715,0.3001,812.6717,0.3668,275,0.0088,-275,0.0098,1;0;0,0,812.2805,1.0,958.0,-475.0,1,0
386,813.0385,-18628.1228,-17815.0843,18628.3395,813.2552,0.3001,813.5554,0.3668,-275,0,275,0.0235,1;0;0,1,813.1642,0.0,-1076.0,-439.0,1,0
387,813.9222,-18629.0065,-17815.0843,18629.2065,814.1223,0.3001,814.4224,0.3668,-275,0,275,0.0671,0;0.5;0,1,814.0229,1.0,969.0,-466.0,1,1
388,814.7892,-18629.8735,-17815.0843,18630.4237,815.3394,0.3001,815.6395,0.3668,-275,0.05,275,0.1171,0;0.5;0,1,815.2484,1.0,966.0,-463.0,1,1
389,816.0063,-18631.0906,-17815.0843,18631.7909,816.7066,0.3001,817.0068,0.3668,-275,0.05,275,0.2421,0;0.5;0,1,816.6070,1.0,970.0,-455.0,1,1
390,817.3736,-18632.4579,-17815.0843,18633.9585,818.8742,0.3001,819.1743,0.3668,275,0.0088,-275,0.017,1;0;0,0,818.7831,1.0,965.0,-468.0,1,0
391,819.5411,-18634.6254,-17815.0843,18634.8255,819.7412,0.3001,820.0413,0.3668,275,0.05,-275,0.0529,0;0.5;0,0,819.6419,0.0,-1082.0,-429.0,1,1
392,820.4081,-18635.4924,-17815.0843,18635.9259,820.8416,0.3001,821.1418,0.3668,-275,0.45,275,0.4735,1;0;0,1,820.7506,0.0,-1081.0,-425.0,1,0
393,821.5086,-18636.5929,-17815.0843,18636.9430,821.8587,0.3001,822.1588,0.3668,-275,0.45,275,0.4582,0;0.5;0,1,821.7677,1.0,976.0,-457.0,1,1
394,822.5256,-18637.6099,-17815.0843,18638.0101,822.9258,0.3001,823.2259,0.3668,275,0.2,-275,0.2235,1;0;0,0,822.8347,1.0,970.0,-458.0,1,0
395,823.5927,-18638.6770,-17815.0843,18639.0438,823.9596,0.3001,824.2597,0.3668,275,0.2,-275,0.2235,1;0;0,0,823.8602,1.0,970.0,-457.0,1,0
396,824.6265,-18639.7108,-17815.0843,18640.4778,825.3935,0.3001,825.6936,0.3668,-275,0,275,0.1921,0;0.5;0,1,825.2941,1.0,968.0,-457.0,1,1
397,826.0604,-18641.1447,-17815.0843,18646.1967,831.1125,0.3001,831.4126,0.3668,275,0.0088,-275,0.0117,0;0.5;0,0,831.0215,0.0,-1082.0,-418.0,1,1
398,831.7794,-18646.8637,-17815.0843,18647.4806,832.3963,0.3001,832.6964,0.3668,-275,0.0088,275,0.2009,0;0.5;0,1,832.3052,1.0,965.0,-455.0,1,1
399,833.0632,-18648.1475,-17815.0843,18648.9145,833.8302,0.3001,834.1303,0.3668,-275,0.45,275,0.5171,1;0;0,1,833.7308,0.0,-1085.0,-427.0,1,0
400,834.4972,-18649.5814,-17815.0843,18650.0816,834.9974,0.3001,835.2975,0.3668,-275,0.2,275,0.2082,0;0.5;0,1,834.9062,1.0,981.0,-451.0,1,1
401,835.6643,-18650.7486,-17815.0843,18651.3655,836.2812,0.3001,836.5813,0.3668,275,0.45,-275,0.4582,1;0;0,0,836.1819,1.0,978.0,-455.0,1,0
402,836.9481,-18652.0324,-17815.0843,18654.9670,839.8827,0.3001,840.1828,0.3668,-275,0.0167,275,0.0177,1;0;0,1,839.7917,0.0,-1089.0,-416.0,1,0
403,840.5496,-18655.6339,-17815.0843,18655.7506,840.6663,0.3001,840.9664,0.3668,-275,0.0088,275,0.2009,1;0;0,1,840.5670,0.0,-1104.0,-414.0,1,0
404,841.3333,-18656.4175,-17815.0843,18656.8844,841.8001,0.3001,842.1002,0.3668,-275,0.0088,275,0.0323,0;0.5;0,1,841.7091,1.0,981.0,-446.0,1,1
405,842.4670,-18657.5513,-17815.0843,18659.3521,844.2678,0.3001,844.5679,0.3668,-275,0.0167,275,0.0249,0;0.5;0,1,844.1685,1.0,986.0,-435.0,1,1
406,844.9347,-18660.0190,-17815.0843,18663.0369,847.9526,0.3001,848.2527,0.3668,275,0,-275,0.0235,0;0.5;0,0,847.8532,0.0,-1098.0,-407.0,1,1
407,848.6195,-18663.7038,-17815.0843,18664.4708,849.3865,0.3001,849.6866,0.3668,275,0.05,-275,0.0582,0;0.5;0,0,849.2872,0.0,-1111.0,-393.0,1,1
408,850.0534,-18665.1377,-17815.0843,18666.2715,851.1872,0.3001,851.4874,0.3668,-275,0.0167,275,0.0196,0;0.5;0,1,851.0962,1.0,989.0,-433.0,1,1
409,851.8542,-18666.9385,-17815.0843,18667.6387,852.5545,0.3001,852.8546,0.3668,275,0.05,-275,0.0735,0;0.5;0,0,852.4634,0.0,-1110.0,-394.0,1,1
410,853.2214,-18668.3057,-17815.0843,18669.0393,853.9550,0.3001,854.2551,0.3668,-275,0.0088,275,0.0759,0;0.5;0,1,853.8557,1.0,987.0,-440.0,1,1
411,854.6220,-18669.7062,-17815.0843,18670.2731,855.1889,0.3001,855.4890,0.3668,275,0.0088,-275,0.2009,0;0.5;0,0,855.0895,0.0,-1101.0,-407.0,1,1
412,855.8558,-18670.9401,-17815.0843,18671.3236,856.2393,0.3001,856.5394,0.3668,-275,0.05,275,0.6,0;0.5;0,1,856.1481,1.0,982.0,-445.0,1,1
413,856.9062,-18671.9905,-17815.0843,18673.3911,858.3068,0.3001,858.6069,0.3668,275,0.0167,-275,0.0196,1;0;0,0,858.2157,1.0,985.0,-440.0,1,0
414,858.9737,-18674.0580,-17815.0843,18674.4915,859.4072,0.3001,859.7074,0.3668,-275,0.0088,275,0.0759,0;0.5;0,1,859.3161,1.0,985.0,-445.0,1,1
415,860.0742,-18675.1585,-17815.0843,18675.8087,860.7244,0.3001,861.0246,0.3668,275,0.2,-275,0.2671,1;0;0,0,860.6335,1.0,980.0,-456.0,1,0
416,861.3914,-18676.4757,-17815.0843,18676.9592,861.8749,0.3001,862.1750,0.3668,275,0.2,-275,1,0;0.5;0,0,861.7755,0.0,-1108.0,-398.0,1,1
417,862.5418,-18677.6261,-17815.0843,18678.0596,862.9753,0.3001,863.2755,0.3668,275,0.45,-275,1,0;0.5;0,0,862.8760,0.0,-1111.0,-398.0,1,1
418,863.6423,-18678.7266,-17815.0843,18680.9775,865.8932,0.3001,866.1933,0.3668,275,0,-275,0.0029,0;0.5;0,0,865.7937,0.0,-1115.0,-392.0,1,1
419,866.5601,-18681.6444,-17815.0843,18682.7782,867.6939,0.3001,867.9940,0.3668,275,0.45,-275,0.4582,0;0.5;0,0,867.5945,0.0,-1120.0,-379.0,1,1
420,868.3609,-18683.4451,-17815.0843,18684.1454,869.0611,0.3001,869.3613,0.3668,-275,0.2,275,0.2235,1;0;0,1,868.9616,0.0,-1119.0,-388.0,1,0
421,869.7281,-18684.8124,-17815.0843,18685.3793,870.2950,0.3001,870.5951,0.3668,275,0.0167,-275,0.0838,0;0.5;0,0,870.1957,0.0,-1117.0,-388.0,1,1
422,870.9619,-18686.0462,-17815.0843,18688.7640,873.6797,0.3001,873.9798,0.3668,-275,0.0167,275,0.0177,0;0.5;0,1,873.5886,1.0,979.0,-447.0,1,1
423,874.3466,-18689.4309,-17815.0843,18690.6147,875.5304,0.3001,875.8305,0.3668,-275,0.0167,275,0.0196,0;0.5;0,1,875.4393,1.0,987.0,-433.0,1,1
424,876.1974,-18691.2816,-17815.0843,18692.1987,877.1144,0.3001,877.4145,0.3668,-275,0.0167,275,0.2088,0;0.5;0,1,877.0234,1.0,983.0,-442.0,1,1
425,877.7813,-18692.8656,-17815.0843,18693.7826,878.6984,0.3001,878.9985,0.3668,275,0.45,-275,0.6421,0;0.5;0,0,878.5990,0.0,-1119.0,-383.0,1,1
426,879.3653,-18694.4496,-17815.0843,18697.1340,882.0497,0.3001,882.3498,0.3668,-275,0,275,0.0235,1;0;0,1,881.9587,0.0,-1117.0,-382.0,1,0
427,882.7167,-18697.8009,-17815.0843,18697.9343,882.8500,0.3001,883.1502,0.3668,-275,0.2,275,0.3921,0;0.5;0,1,882.7506,1.0,990.0,-436.0,1,1
428,883.5170,-18698.6013,-17815.0843,18699.0848,884.0005,0.3001,884.3006,0.3668,-275,0.0167,275,0.0249,0;0.5;0,1,883.9095,1.0,989.0,-437.0,1,1
429,884.6674,-18699.7517,-17815.0843,18701.7025,886.6182,0.3001,886.9184,0.3668,275,0,-275,0.001,1;0;0,0,886.5273,1.0,984.0,-445.0,1,0
430,887.2852,-18702.3695,-17815.0843,18702.7529,887.6687,0.3001,887.9688,0.3668,-275,0.0088,275,0.017,0;0.5;0,1,887.5775,1.0,987.0,-439.0,1,1
431,888.3356,-18703.4199,-17815.0843,18703.9034,888.8191,0.3001,889.1192,0.3668,275,0.05,-275,0.6,1;0;0,0,888.7280,1.0,988.0,-444.0,1,0
432,889.4861,-18704.5703,-17815.0843,18705.0872,890.0029,0.3001,890.3031,0.3668,-275,0.0088,275,0.0759,1;0;0,1,889.7618,0.0,-1125.0,-375.0,1,0
433,890.6699,-18705.7542,-17815.0843,18706.2210,891.1367,0.3001,891.4368,0.3668,-275,0.2,275,0.75,0;0.5;0,1,891.0372,1.0,985.0,-443.0,1,1
434,891.8037,-18706.8879,-17815.0843,18707.3381,892.2538,0.3001,892.5540,0.3668,275,0.45,-275,1,0;0.5;0,0,892.1544,0.0,-1116.0,-387.0,1,1
435,892.9208,-18708.0051,-17815.0843,18708.3552,893.2709,0.3001,893.5710,0.3668,-275,0.45,275,0.5171,0;0.5;0,1,893.1798,1.0,987.0,-445.0,1,1
436,893.9379,-18709.0221,-17815.0843,18712.2568,897.1725,0.3001,897.4726,0.3668,275,0,-275,0.0235,0;0.5;0,0,897.0731,0.0,-1131.0,-372.0,1,1
437,897.8394,-18712.9237,-17815.0843,18713.6740,898.5897,0.3001,898.8899,0.3668,275,0.05,-275,0.6,0;0.5;0,0,898.3570,0.0,-1134.0,-373.0,1,1
438,899.2567,-18714.3410,-17815.0843,18717.1588,902.0745,0.3001,902.3746,0.3668,275,0.0088,-275,0.017,1;0;0,0,901.9834,1.0,989.0,-440.0,1,0
439,902.7414,-18717.8257,-17815.0843,18718.4426,903.3583,0.3001,903.6585,0.3668,275,0,-275,0.0082,0;0.5;0,0,903.1506,0.0,-1125.0,-373.0,1,1
440,904.0253,-18719.1096,-17815.0843,18719.7431,904.6589,0.3001,904.9590,0.3668,-275,0,275,0.0671,0;0.5;0,1,904.5679,1.0,986.0,-436.0,1,1
441,905.3258,-18720.4101,-17815.0843,18721.1104,906.0261,0.3001,906.3262,0.3668,-275,0.2,275,0.2671,0;0.5;0,1,905.9268,1.0,987.0,-452.0,1,1
442,906.6930,-18721.7773,-17815.0843,18725.0620,909.9777,0.3001,910.2778,0.3668,275,0.0167,-275,0.0249,1;0;0,0,909.8782,1.0,985.0,-454.0,1,0
443,910.6446,-18725.7289,-17815.0843,18726.2458,911.1615,0.3001,911.4616,0.3668,275,0.0167,-275,0.0177,0;0.5;0,0,910.9204,0.0,-1129.0,-369.0,1,1
444,911.8284,-18726.9127,-17815.0843,18727.3129,912.2286,0.3043,912.5329,0.3626,-275,0.05,275,0.0735,1;0;0,1,911.9875,0.0,-1134.0,-368.0,1,0
445,912.8955,-18727.9798,-17815.0843,18728.1632,913.0789,0.3001,913.3791,0.3668,275,0,-275,0.0082,1;0;0,0,912.9795,1.0,987.0,-456.0,1,0
446,913.7459,-18728.8301,-17815.0843,18729.2970,914.2127,0.3001,914.5128,0.3668,275,0.0088,-275,0.0323,0;0.5;0,0,913.9717,0.0,-1136.0,-371.0,1,1
447,914.8797,-18729.9639,-17815.0843,18730.5975,915.5132,0.3001,915.8134,0.3668,275,0.0167,-275,0.2088,0;0.5;0,0,915.3222,0.0,-1133.0,-365.0,1,1
448,916.1802,-18731.2645,-17815.0843,18731.8314,916.7471,0.3001,917.0472,0.3668,275,0.2,-275,1,0;0.5;0,0,916.5227,0.0,-1134.0,-369.0,1,1
449,917.4140,-18732.4983,-17815.0843,18733.0485,917.9642,0.3001,918.2644,0.3668,-275,0.45,275,0.4582,0;0.5;0,1,917.8648,1.0,979.0,-458.0,1,1
450,918.6312,-18733.7155,-17815.0843,18734.4824,919.3981,0.3001,919.6983,0.3668,-275,0.0088,275,0.0759,0;0.5;0,1,919.3070,1.0,980.0,-452.0,1,1
451,920.0651,-18735.1494,-17815.0843,18736.2832,921.1989,0.3001,921.4990,0.3668,-275,0.0088,275,0.0759,0;0.5;0,1,921.0995,1.0,986.0,-444.0,1,1
452,921.8658,-18736.9501,-17815.0843,18737.0835,921.9992,0.3001,922.2993,0.3668,-275,0.45,275,0.5171,1;0;0,1,921.9081,0.0,-1127.0,-375.0,1,0
453,922.6661,-18737.7504,-17815.0843,18738.2340,923.1497,0.3001,923.4498,0.3668,-275,0.2,275,0.2671,0;0.5;0,1,923.0503,1.0,985.0,-447.0,1,1
454,923.8166,-18738.9009,-17815.0843,18739.4511,924.3668,0.3001,924.6669,0.3668,275,0.2,-275,0.2671,1;0;0,0,924.2674,1.0,977.0,-466.0,1,0
455,925.0338,-18740.1180,-17815.0843,18740.7183,925.6340,0.3001,925.9341,0.3668,275,0.2,-275,0.3921,0;0.5;0,0,925.3929,0.0,-1138.0,-370.0,1,1
456,926.3009,-18741.3852,-17815.0843,18741.7187,926.6344,0.3001,926.9345,0.3668,275,0,-275,0.001,0;0.5;0,0,926.4434,0.0,-1138.0,-369.0,1,1
457,927.3013,-18742.3856,-17815.0843,18742.8358,927.7515,0.3001,928.0516,0.3668,275,0.0088,-275,0.0098,0;0.5;0,0,927.5271,0.0,-1138.0,-368.0,1,1
458,928.4185,-18743.5027,-17815.0843,18743.8862,928.8020,0.3001,929.1021,0.3668,275,0.0167,-275,0.0196,0;0.5;0,0,928.5942,0.0,-1142.0,-366.0,1,1
459,929.4689,-18744.5532,-17815.0843,18744.9367,929.8524,0.3001,930.1525,0.3668,-275,0.05,275,0.0735,1;0;0,1,929.6278,0.0,-1149.0,-357.0,1,0
460,930.5193,-18745.6036,-17815.0843,18745.9871,930.9028,0.3001,931.2029,0.3668,-275,0.45,275,0.4735,0;0.5;0,1,930.8035,1.0,991.0,-451.0,1,1
461,931.5697,-18746.6540,-17815.0843,18746.8374,931.7531,0.3001,932.0533,0.3668,-275,0.2,275,0.2082,0;0.5;0,1,931.6621,1.0,992.0,-441.0,1,1
462,932.4201,-18747.5044,-17815.0843,18747.8378,932.7535,0.3001,933.0537,0.3668,-275,0.05,275,0.1171,0;0.5;0,1,932.6625,1.0,993.0,-440.0,1,1
463,933.4205,-18748.5048,-17815.0843,18748.8716,933.7873,0.3001,934.0874,0.3668,275,0.2,-275,0.2082,1;0;0,0,933.6879,1.0,991.0,-445.0,1,0
464,934.4542,-18749.5385,-17815.0843,18749.9053,934.8210,0.3001,935.1212,0.3668,275,0,-275,0.0235,0;0.5;0,0,934.6298,0.0,-1136.0,-375.0,1,1
465,935.4880,-18750.5723,-17815.0843,18751.1058,936.0215,0.3001,936.3217,0.3668,275,0.2,-275,0.75,0;0.5;0,0,935.7888,0.0,-1139.0,-368.0,1,1
466,936.6885,-18751.7728,-17815.0843,18752.1729,937.0886,0.3001,937.3888,0.3668,275,0.05,-275,0.2421,0;0.5;0,0,936.8726,0.0,-1146.0,-365.0,1,1
467,937.7556,-18752.8399,-17815.0843,18753.6902,938.6059,0.3001,938.9060,0.3668,275,0.0167,-275,0.0402,0;0.5;0,0,938.3231,0.0,-1147.0,-355.0,1,1
468,939.2728,-18754.3571,-17815.0843,18755.0074,939.9231,0.3001,940.2232,0.3668,275,0.45,-275,0.6421,0;0.5;0,0,939.6736,0.0,-1148.0,-351.0,1,1
469,940.5900,-18755.6743,-17815.0843,18755.8077,940.7234,0.3001,941.0236,0.3668,-275,0.05,275,0.0582,0;0.5;0,1,940.6324,1.0,995.0,-430.0,1,1
470,941.3904,-18756.4747,-17815.0843,18756.8915,941.8072,0.3001,942.1073,0.3668,-275,0.0167,275,0.2088,1;0;0,1,941.6494,0.0,-1148.0,-355.0,1,0
471,942.4741,-18757.5584,-17815.0843,18757.6585,942.5742,0.3001,942.8743,0.3668,-275,0.0088,275,0.2009,0;0.5;0,1,942.4748,1.0,991.0,-442.0,1,1
472,943.2411,-18758.3254,-17815.0843,18758.7756,943.6913,0.3001,943.9914,0.3668,275,0.45,-275,0.4582,1;0;0,0,943.5919,1.0,993.0,-442.0,1,0
473,944.3582,-18759.4425,-17815.0843,18759.7760,944.6917,0.3001,944.9918,0.3668,275,0,-275,0.0235,0;0.5;0,0,944.4673,0.0,-1143.0,-358.0,1,1
474,945.3586,-18760.4429,-17815.0843,18761.2432,946.1590,0.3001,946.4591,0.3668,275,0,-275,0.0671,0;0.5;0,0,945.9510,0.0,-1140.0,-357.0,1,1
475,946.8259,-18761.9102,-17815.0843,18762.3270,947.2427,0.3001,947.5429,0.3668,-275,0.0167,275,0.0196,1;0;0,1,946.9850,0.0,-1142.0,-357.0,1,0
476,947.9097,-18762.9940,-17815.0843,18763.4108,948.3265,0.3001,948.6266,0.3668,275,0.0167,-275,0.0196,1;0;0,0,948.2354,1.0,996.0,-443.0,1,0
477,948.9934,-18764.0777,-17815.0843,18764.5779,949.4936,0.3001,949.7938,0.3668,-275,0.2,275,1,0;0.5;0,1,949.3943,1.0,993.0,-449.0,1,1
478,950.1606,-18765.2449,-17815.0843,18765.8785,950.7942,0.3001,951.0943,0.3668,275,0.2,-275,0.75,0;0.5;0,0,950.5447,0.0,-1143.0,-357.0,1,1
479,951.4611,-18766.5454,-17815.0843,18767.3791,952.2948,0.3001,952.5949,0.3668,275,0.0088,-275,0.017,1;0;0,0,952.1954,1.0,1006.0,-425.0,1,0
480,952.9617,-18768.0460,-17815.0843,18768.5629,953.4786,0.3001,953.7787,0.3668,-275,0.2,275,0.2235,0;0.5;0,1,953.3875,1.0,1003.0,-432.0,1,1
481,954.1455,-18769.2298,-17815.0843,18769.6466,954.5624,0.3001,954.8625,0.3668,-275,0.2,275,0.75,0;0.5;0,1,954.4713,1.0,1006.0,-425.0,1,1
482,955.2293,-18770.3136,-17815.0843,18771.0139,955.9296,0.3001,956.2297,0.3668,-275,0.2,275,0.2235,0;0.5;0,1,955.8385,1.0,1006.0,-428.0,1,1
483,956.5965,-18771.6808,-17815.0843,18772.2310,957.1467,0.3001,957.4469,0.3668,275,0.45,-275,1,0;0.5;0,0,956.9139,0.0,-1139.0,-368.0,1,1
484,957.8137,-18772.8980,-17815.0843,18773.8650,958.7807,0.3001,959.0809,0.3668,275,0.0167,-275,0.0177,1;0;0,0,958.6896,1.0,1009.0,-421.0,1,0
485,959.4477,-18774.5320,-17815.0843,18774.8821,959.7978,0.3001,960.0979,0.3668,275,0.0088,-275,0.2009,0;0.5;0,0,959.5734,0.0,-1158.0,-360.0,1,1
486,960.4647,-18775.5490,-17815.0843,18775.9992,960.9149,0.3001,961.2150,0.3668,275,0.45,-275,0.5171,1;0;0,0,960.8155,1.0,1009.0,-429.0,1,0
487,961.5819,-18776.6661,-17815.0843,18777.0997,962.0154,0.3001,962.3155,0.3668,275,0.45,-275,0.5171,0;0.5;0,0,961.7992,0.0,-1144.0,-353.0,1,1
488,962.6823,-18777.7666,-17815.0843,18778.2668,963.1825,0.3001,963.4826,0.3668,-275,0.45,275,1,1;0;0,1,962.9582,0.0,-1144.0,-357.0,1,0
489,963.8494,-18778.9337,-17815.0843,18779.5673,964.4830,0.3001,964.7832,0.3668,-275,0.45,275,0.5171,1;0;0,1,964.2585,0.0,-1147.0,-359.0,1,0
490,965.1500,-18780.2343,-17815.0843,18780.4677,965.3834,0.3001,965.6835,0.3668,275,0.2,-275,0.2671,1;0;0,0,965.2923,1.0,1004.0,-439.0,1,0
491,966.0503,-18781.1346,-17815.0843,18781.6015,966.5172,0.3001,966.8173,0.3668,275,0.2,-275,0.3921,1;0;0,0,966.4177,1.0,1009.0,-433.0,1,0
492,967.1841,-18782.2684,-17815.0843,18783.9858,968.9015,0.3001,969.2016,0.3668,275,0.45,-275,0.4582,0;0.5;0,0,968.6936,0.0,-1143.0,-364.0,1,1
493,969.5684,-18784.6527,-17815.0843,18785.7865,970.7022,0.3001,971.0023,0.3668,275,0.0088,-275,0.017,1;0;0,0,970.6112,1.0,1009.0,-421.0,1,0
494,971.3691,-18786.4534,-17815.0843,18787.0370,971.9527,0.3001,972.2528,0.3668,275,0.2,-275,0.3921,0;0.5;0,0,971.7283,0.0,-1137.0,-368.0,1,1
495,972.6197,-18787.7039,-17815.0843,18788.1708,973.0865,0.3001,973.3866,0.3668,275,0.2,-275,0.3921,0;0.5;0,0,972.8537,0.0,-1145.0,-358.0,1,1
496,973.7534,-18788.8377,-17815.0843,18789.5547,974.4704,0.3001,974.7705,0.3668,-275,0.0088,275,0.2009,0;0.5;0,1,974.3709,1.0,1002.0,-428.0,1,1
497,975.1373,-18790.2216,-17815.0843,18790.7885,975.7042,0.3001,976.0044,0.3668,-275,0.45,275,1,0;0.5;0,1,975.6132,1.0,1000.0,-436.0,1,1
498,976.3712,-18791.4555,-17815.0843,18792.4225,977.3382,0.3001,977.6383,0.3668,-275,0,275,0.001,0;0.5;0,1,977.2387,1.0,1004.0,-437.0,1,1
499,978.0052,-18793.0894,-17815.0843,18793.8898,978.8055,0.3001,979.1056,0.3668,275,0.0088,-275,0.2009,0;0.5;0,0,978.5809,0.0,-1143.0,-360.0,1,1
500,979.4724,-18794.5567,-17815.0843,18795.5404,980.4562,0.3001,980.7563,0.3668,275,0.0088,-275,0.0323,1;0;0,0,980.3649,1.0,1004.0,-426.0,1,0
501,981.1231,-18796.2074,-17815.0843,18796.7909,981.7067,0.3001,982.0068,0.3668,-275,0.2,275,1,0;0.5;0,1,981.6072,1.0,1004.0,-435.0,1,1
502,982.3736,-18797.4579,-17815.0843,18798.0915,983.0072,0.3001,983.3073,0.3668,275,0.45,-275,0.6421,0;0.5;0,0,982.7826,0.0,-1144.0,-360.0,1,1
503,983.6741,-18798.7584,-17815.0843,18799.4420,984.3577,0.3001,984.6579,0.3668,275,0.2,-275,0.75,0;0.5;0,0,984.1249,0.0,-1146.0,-361.0,1,1
504,985.0247,-18800.1090,-17815.0843,18801.0760,985.9917,0.3001,986.2918,0.3668,-275,0,275,0.1921,0;0.5;0,1,985.8923,1.0,1009.0,-421.0,1,1
505,986.6587,-18801.7429,-17815.0843,18802.6600,987.5757,0.3001,987.8758,0.3668,275,0.0167,-275,0.0196,1;0;0,0,987.4764,1.0,1013.0,-416.0,1,0
506,988.2426,-18803.3269,-17815.0843,18805.2610,990.1767,0.3001,990.4769,0.3668,-275,0.0167,275,0.0838,0;0.5;0,1,990.0856,1.0,1013.0,-430.0,1,1
507,990.8437,-18805.9280,-17815.0843,18806.7450,991.6607,0.3001,991.9608,0.3668,275,0.2,-275,0.75,0;0.5;0,0,991.4196,0.0,-1149.0,-355.0,1,1
508,992.3276,-18807.4119,-17815.0843,18808.7124,993.6281,0.3001,993.9283,0.3668,-275,0,275,0.0235,1;0;0,1,993.4871,0.0,-1158.0,-340.0,1,0
509,994.2951,-18809.3794,-17815.0843,18809.6295,994.5452,0.3001,994.8453,0.3668,275,0.45,-275,0.4735,1;0;0,0,994.4458,1.0,1020.0,-417.0,1,0
510,995.2121,-18810.2964,-17815.0843,18810.6465,995.5623,0.3001,995.8624,0.3668,275,0,-275,0.0029,0;0.5;0,0,995.3545,0.0,-1148.0,-350.0,1,1
511,996.2292,-18811.3135,-17815.0843,18814.3480,999.2638,0.3001,999.5639,0.3668,275,0.0167,-275,0.0249,0;0.5;0,0,999.0143,0.0,-1136.0,-367.0,1,1
512,999.9307,-18815.0150,-17815.0843,18815.7819,1000.6977,0.3001,1000.9978,0.3668,275,0.0167,-275,0.0838,0;0.5;0,0,1000.4731,0.0,-1157.0,-351.0,1,1
513,1001.3646,-18816.4489,-17815.0843,18817.4660,1002.3817,0.3001,1002.6818,0.3668,-275,0.2,275,0.2671,1;0;0,1,1002.2823,0.0,-1154.0,-349.0,1,0
514,1003.0486,-18818.1329,-17815.0843,18818.7331,1003.6489,0.3001,1003.9490,0.3668,275,0.45,-275,1,0;0.5;0,0,1003.4078,0.0,-1144.0,-366.0,1,1
515,1004.3158,-18819.4001,-17815.0843,18822.1178,1007.0336,0.3001,1007.3337,0.3668,275,0,-275,0.0671,0;0.5;0,0,1006.8008,0.0,-1142.0,-359.0,1,1
516,1007.7005,-18822.7848,-17815.0843,18824.1186,1009.0344,0.3001,1009.3345,0.3668,-275,0.2,275,0.2235,1;0;0,1,1008.7933,0.0,-1159.0,-343.0,1,0
517,1009.7013,-18824.7856,-17815.0843,18825.3858,1010.3015,0.3001,1010.6017,0.3668,275,0.0167,-275,0.0249,1;0;0,0,1010.2106,1.0,1028.0,-435.0,1,0
518,1010.9685,-18826.0528,-17815.0843,18827.8201,1012.7359,0.3001,1013.0360,0.0000,-275,0.2,275,0.75,1;0;0,1,1012.5448,0.0,-1137.0,-393.0,1,0
519,1013.0360,-18828.1203,-17815.0843,18828.5371,1013.4528,0.3043,1013.7571,0.3626,275,0.0167,-275,0.0196,1;0;0,0,1013.3534,1.0,1036.0,-473.0,1,0
520,1014.1198,-18829.2040,-17815.0843,18829.4708,1014.3865,0.3001,1014.6866,0.3668,-275,0.0088,275,0.017,1;0;0,1,1014.2872,0.0,-1124.0,-387.0,1,0
521,1015.0535,-18830.1377,-17815.0843,18830.5046,1015.4203,0.3001,1015.7204,0.3668,-275,0.0167,275,0.2088,1;0;0,1,1015.3209,0.0,-1120.0,-402.0,1,0
522,1016.0872,-18831.1715,-17815.0843,18831.7050,1016.6208,0.3001,1016.9209,0.3668,275,0.05,-275,0.0529,1;0;0,0,1016.5213,1.0,1037.0,-455.0,1,0
523,1017.2877,-18832.3720,-17815.0843,18832.8722,1017.7879,0.3001,1018.0880,0.3668,275,0.05,-275,0.1171,0;0.5;0,0,1017.5885,0.0,-1143.0,-374.0,1,1
524,1018.4548,-18833.5391,-17815.0843,18834.0727,1018.9884,0.3001,1019.2885,0.3668,-275,0,275,0.0671,0;0.5;0,1,1018.8972,1.0,1023.0,-468.0,1,1
525,1019.6553,-18834.7396,-17815.0843,18835.5733,1020.4890,0.3001,1020.7891,0.3668,275,0.0088,-275,0.2009,0;0.5;0,0,1020.2645,0.0,-1134.0,-385.0,1,1
526,1021.1559,-18836.2402,-17815.0843,18837.9076,1022.8233,0.3001,1023.1234,0.3668,275,0,-275,0.0082,1;0;0,0,1022.7239,1.0,1009.0,-473.0,1,0
527,1023.4902,-18838.5745,-17815.0843,18839.1414,1024.0571,0.3001,1024.3572,0.3668,275,0,-275,0.1921,0;0.5;0,0,1023.8326,0.0,-1133.0,-383.0,1,1
528,1024.7240,-18839.8083,-17815.0843,18841.1088,1026.0246,0.3001,1026.3247,0.3668,275,0.05,-275,0.0582,0;0.5;0,0,1025.8001,0.0,-1129.0,-378.0,1,1
529,1026.6915,-18841.7758,-17815.0843,18842.5928,1027.5085,0.3001,1027.8086,0.3668,275,0.05,-275,0.2421,0;0.5;0,0,1027.3257,0.0,-1129.0,-379.0,1,1
530,1028.1754,-18843.2597,-17815.0843,18844.0434,1028.9591,0.3001,1029.2592,0.3668,275,0.2,-275,0.75,0;0.5;0,0,1028.7513,0.0,-1129.0,-375.0,1,1
531,1029.6260,-18844.7103,-17815.0843,18845.8274,1030.7431,0.3001,1031.0433,0.3668,275,0.05,-275,0.0529,0;0.5;0,0,1030.5103,0.0,-1134.0,-385.0,1,1
532,1031.4101,-18846.4944,-17815.0843,18848.6119,1033.5276,0.3001,1033.8277,0.0000,-275,0.0167,275,0.0402,1;0;0,1,1033.4282,0.0,-1120.0,-386.0,1,0
533,1033.8277,-18848.9120,-17815.0843,18849.3288,1034.2445,0.3001,1034.5447,0.3668,275,0.0088,-275,0.0117,1;0;0,0,1034.1451,1.0,1011.0,-463.0,1,0
534,1034.9115,-18849.9958,-17815.0843,18850.0958,1035.0115,0.3001,1035.3116,0.3668,275,0,-275,0.1921,1;0;0,0,1034.9205,1.0,1017.0,-472.0,1,0
535,1035.6785,-18850.7627,-17815.0843,18851.1963,1036.1120,0.3001,1036.4121,0.3668,-275,0.0167,275,0.2088,0;0.5;0,1,1036.0126,1.0,1022.0,-469.0,1,1
536,1036.7789,-18851.8632,-17815.0843,18852.4301,1037.3458,0.3001,1037.6459,0.0000,-275,0.45,275,0.4735,1;0;0,1,1037.2462,0.0,-1115.0,-397.0,1,0
537,1037.6459,-18852.7302,-17815.0843,18853.1470,1038.0628,0.3001,1038.3629,0.3668,-275,0.45,275,0.4582,0;0.5;0,1,1037.9634,1.0,1014.0,-468.0,1,1
538,1038.7297,-18853.8140,-17815.0843,18855.1979,1040.1136,0.3001,1040.4137,0.3668,-275,0.0167,275,0.0249,1;0;0,1,1040.0143,0.0,-1103.0,-411.0,1,0
539,1040.7805,-18855.8648,-17815.0843,18856.6151,1041.5308,0.3001,1041.8309,0.3668,-275,0.0167,275,0.0838,0;0.5;0,1,1041.4399,1.0,1017.0,-460.0,1,1
540,1042.1978,-18857.2820,-17815.0843,18857.9657,1042.8814,0.3001,1043.1815,0.3668,275,0.2,-275,0.75,0;0.5;0,0,1042.7903,0.0,-1118.0,-395.0,1,1
541,1043.5483,-18858.6326,-17815.0843,18859.4996,1044.4153,0.3001,1044.7154,0.3668,275,0.2,-275,0.2082,0;0.5;0,0,1044.3244,0.0,-1111.0,-398.0,1,1
542,1045.0823,-18860.1665,-17815.0843,18860.9168,1045.8326,0.3001,1046.1327,0.3668,-275,0.0167,275,0.0196,1;0;0,1,1045.7331,0.0,-1116.0,-394.0,1,0
543,1046.4995,-18861.5838,-17815.0843,18862.1840,1047.0997,0.3001,1047.3999,0.3668,-275,0.0167,275,0.0402,0;0.5;0,1,1047.0087,1.0,1014.0,-468.0,1,1
544,1047.7667,-18862.8510,-17815.0843,18863.6680,1048.5837,0.3001,1048.8838,0.3668,-275,0.2,275,0.2235,1;0;0,1,1048.4926,0.0,-1114.0,-397.0,1,0
545,1049.2506,-18864.3349,-17815.0843,18864.9185,1049.8342,0.3001,1050.1343,0.3668,275,0,-275,0.001,1;0;0,0,1049.7431,1.0,1014.0,-466.0,1,0
546,1050.5011,-18865.5854,-17815.0843,18866.2357,1051.1514,0.3001,1051.4515,0.3668,-275,0.05,275,0.0582,1;0;0,1,1051.0604,0.0,-1115.0,-393.0,1,0
547,1051.8183,-18866.9026,-17815.0843,18867.0693,1051.9850,0.3001,1052.2852,0.3668,-275,0.2,275,0.75,0;0.5;0,1,1051.8856,1.0,1007.0,-473.0,1,1
548,1052.6520,-18867.7363,-17815.0843,18868.7367,1053.6524,0.3001,1053.9525,0.3668,-275,0,275,0.001,0;0.5;0,1,1053.5530,1.0,1008.0,-469.0,1,1
549,1054.3193,-18869.4036,-17815.0843,18870.0539,1054.9696,0.3001,1055.2697,0.3668,275,0.05,-275,0.6,0;0.5;0,0,1054.8785,0.0,-1104.0,-407.0,1,1
550,1055.6365,-18870.7208,-17815.0843,18871.4711,1056.3868,0.3001,1056.6869,0.3668,275,0.45,-275,0.4735,1;0;0,0,1056.2874,1.0,1013.0,-465.0,1,0
551,1057.0538,-18872.1380,-17815.0843,18872.8383,1057.7540,0.3001,1058.0542,0.3668,-275,0.2,275,0.2082,1;0;0,1,1057.6547,0.0,-1091.0,-417.0,1,0
552,1058.4210,-18873.5053,-17815.0843,18873.7554,1058.6711,0.3001,1058.9712,0.3668,-275,0.2,275,0.2671,1;0;0,1,1058.5800,0.0,-1091.0,-421.0,1,0
553,1059.3380,-18874.4223,-17815.0843,18874.9892,1059.9049,0.3001,1060.2050,0.3668,-275,0,275,0.0235,1;0;0,1,1059.8056,0.0,-1085.0,-421.0,1,0
554,1060.5718,-18875.6561,-17815.0843,18876.2730,1061.1888,0.3001,1061.4889,0.3668,-275,0.2,275,1,0;0.5;0,1,1061.0976,1.0,1001.0,-479.0,1,1
555,1061.8557,-18876.9400,-17815.0843,18877.5569,1062.4726,0.3001,1062.7727,0.3668,-275,0.45,275,0.4735,0;0.5;0,1,1062.3816,1.0,1002.0,-477.0,1,1
556,1063.1395,-18878.2238,-17815.0843,18879.8912,1064.8069,0.3001,1065.1070,0.3668,-275,0,275,0.001,0;0.5;0,1,1064.7159,1.0,1002.0,-476.0,1,1
557,1065.4738,-18880.5581,-17815.0843,18881.1917,1066.1074,0.3001,1066.4075,0.3668,275,0.2,-275,0.2082,1;0;0,0,1066.0162,1.0,1002.0,-475.0,1,0
558,1066.7744,-18881.8586,-17815.0843,18882.8757,1067.7914,0.3001,1068.0915,0.3668,-275,0,275,0.0235,1;0;0,1,1067.7003,0.0,-1080.0,-435.0,1,0
559,1068.4584,-18883.5426,-17815.0843,18883.9428,1068.8585,0.3001,1069.1586,0.3668,275,0.0088,-275,0.0759,0;0.5;0,0,1068.7591,0.0,-1077.0,-436.0,1,1
560,1069.5255,-18884.6097,-17815.0843,18885.1766,1070.0924,0.3001,1070.3925,0.3668,-275,0.0167,275,0.0177,1;0;0,1,1070.0013,0.0,-1072.0,-439.0,1,0