trial,presentation_startTime,presentation_duration,prefeedback_startTime,prefeedback_duration,feedback_startTime,feedback_duration,fixation_startTime,fixation_duration,presentation_object1_positionX,presentation_object1_contrastValue,presentation_object2_positionX,presentation_object2_contrastValue,feedback_object1_color,trialValue,presentation_responseTime,presentation_response,presentation_touchPositionX,presentation_touchPositionY,respondedInTime,correct
1,55.5643,-78407.0133,-78351.4490,78408.1637,56.7148,0.3001,57.0149,0.3668,275,0.45,-275,0.5171,1;0;0,0,56.6321,1.0,1075.0,-689.0,1,0
2,57.3817,-78408.8307,-78351.4490,78409.7144,58.2654,0.3001,58.5655,0.3668,275,0.45,-275,0.5171,0;0.5;0,0,58.1827,0.0,-1036.0,-667.0,1,1
3,58.9323,-78410.3813,-78351.4490,78411.1483,59.6993,0.3001,59.9994,0.3668,275,0,-275,0.1921,0;0.5;0,0,59.6166,0.0,-1024.0,-686.0,1,1
4,60.3662,-78411.8152,-78351.4490,78413.0657,61.6168,0.3001,61.9169,0.3668,-275,0,275,0.0029,0;0.5;0,1,61.5257,1.0,1069.0,-710.0,1,1
5,62.2837,-78413.7327,-78351.4490,78414.6164,63.1674,0.3001,63.4675,0.3668,275,0.45,-275,0.4582,1;0;0,0,63.0847,1.0,1062.0,-705.0,1,0
6,63.8343,-78415.2833,-78351.4490,78416.3337,64.8848,0.3001,65.1849,0.3668,-275,0.05,275,0.0582,0;0.5;0,1,64.7936,1.0,1056.0,-716.0,1,1
7,65.5517,-78417.0007,-78351.4490,78417.6676,66.2186,0.3001,66.5187,0.3668,-275,0.2,275,0.75,0;0.5;0,1,66.1275,1.0,1053.0,-712.0,1,1
8,66.8856,-78418.3345,-78351.4490,78418.9348,67.4858,0.3001,67.7859,0.3668,275,0.05,-275,0.6,0;0.5;0,0,67.3948,0.0,-1017.0,-694.0,1,1
9,68.1527,-78419.6017,-78351.4490,78420.5188,69.0698,0.3001,69.3699,0.3668,-275,0.05,275,0.0582,0;0.5;0,1,68.9787,1.0,1057.0,-723.0,1,1
10,69.7367,-78421.1857,-78351.4490,78423.5033,72.0543,0.3001,72.3545,0.3668,-275,0,275,0.0235,0;0.5;0,1,71.9634,1.0,1070.0,-710.0,1,1
11,72.7213,-78424.1703,-78351.4490,78424.8039,73.3549,0.3001,73.6550,0.3668,275,0.2,-275,1,0;0.5;0,0,73.2720,0.0,-1033.0,-709.0,1,1
12,74.0218,-78425.4708,-78351.4490,78426.1044,74.6554,0.3001,74.9555,0.3668,275,0.2,-275,1,0;0.5;0,0,74.5727,0.0,-1030.0,-709.0,1,1
13,75.3223,-78426.7713,-78351.4490,78428.1052,76.6562,0.3001,76.9563,0.3668,-275,0.0088,275,0.2009,0;0.5;0,1,76.5734,1.0,1081.0,-724.0,1,1
14,77.3231,-78428.7721,-78351.4490,78429.4224,77.9734,0.3001,78.2735,0.3668,-275,0,275,0.0671,0;0.5;0,1,77.8906,1.0,1072.0,-719.0,1,1
15,78.6404,-78430.0893,-78351.4490,78431.0397,79.5907,0.3001,79.8909,0.3668,-275,0.0088,275,0.0098,0;0.5;0,1,79.4996,1.0,1090.0,-717.0,1,1
16,80.2577,-78431.7067,-78351.4490,78432.0401,80.5911,0.3001,80.8913,0.3668,-275,0.0167,275,0.0177,0;0.5;0,1,80.5085,1.0,1091.0,-723.0,1,1
17,81.2581,-78432.7071,-78351.4490,78433.3073,81.8583,0.3001,82.1585,0.3668,275,0,-275,0.0671,0;0.5;0,0,81.7672,0.0,-1024.0,-701.0,1,1
18,82.5253,-78433.9743,-78351.4490,78434.4578,83.0088,0.3001,83.3089,0.3668,-275,0.2,275,0.75,0;0.5;0,1,82.9179,1.0,1087.0,-726.0,1,1
19,83.6757,-78435.1247,-78351.4490,78435.8417,84.3927,0.3001,84.6928,0.3668,275,0.05,-275,0.6,0;0.5;0,0,84.3100,0.0,-1043.0,-695.0,1,1
20,85.0596,-78436.5086,-78351.4490,78437.2423,85.7933,0.3001,86.0934,0.3668,-275,0,275,0.0235,1;0;0,1,85.7105,0.0,-1047.0,-678.0,1,0
21,86.4602,-78437.9092,-78351.4490,78438.6261,87.1772,0.3001,87.4773,0.3668,275,0.05,-275,0.0735,1;0;0,0,87.0944,1.0,1092.0,-724.0,1,0
22,87.8441,-78439.2931,-78351.4490,78440.2601,88.8112,0.3001,89.1113,0.3668,275,0.0167,-275,0.0249,0;0.5;0,0,88.7201,0.0,-1033.0,-684.0,1,1
23,89.4781,-78440.9271,-78351.4490,78441.9442,90.4952,0.3001,90.7953,0.3668,-275,0.05,275,0.1171,0;0.5;0,1,90.4125,1.0,1092.0,-715.0,1,1
24,91.1621,-78442.6111,-78351.4490,78443.4614,92.0125,0.3001,92.3126,0.3668,-275,0.0167,275,0.0196,0;0.5;0,1,91.9297,1.0,1083.0,-719.0,1,1
25,92.6794,-78444.1284,-78351.4490,78444.9787,93.5298,0.3001,93.8299,0.3668,275,0.0167,-275,0.0249,1;0;0,0,93.4386,1.0,1066.0,-708.0,1,0
26,94.1967,-78445.6457,-78351.4490,78446.2626,94.8136,0.3001,95.1137,0.3668,-275,0.45,275,0.4582,0;0.5;0,1,94.7225,1.0,1068.0,-704.0,1,1
27,95.4805,-78446.9295,-78351.4490,78447.6798,96.2309,0.3001,96.5310,0.3668,-275,0.05,275,0.0735,0;0.5;0,1,96.1483,1.0,1058.0,-716.0,1,1
28,96.8978,-78448.3468,-78351.4490,78448.9804,97.5314,0.3001,97.8315,0.3668,275,0,-275,0.0671,0;0.5;0,0,97.4404,0.0,-1024.0,-676.0,1,1
29,98.1983,-78449.6473,-78351.4490,78450.3643,98.9153,0.3001,99.2154,0.3668,275,0.2,-275,0.3921,0;0.5;0,0,98.8243,0.0,-1023.0,-687.0,1,1
30,99.5822,-78451.0312,-78351.4490,78451.7482,100.2992,0.3001,100.5993,0.3668,-275,0.0167,275,0.0838,0;0.5;0,1,100.2166,1.0,1061.0,-716.0,1,1
31,100.9661,-78452.4151,-78351.4490,78453.3155,101.8665,0.3001,102.1666,0.3668,275,0.2,-275,0.2082,1;0;0,0,101.7837,1.0,1056.0,-714.0,1,0
32,102.5334,-78453.9824,-78351.4490,78455.0162,103.5672,0.3001,103.8673,0.3668,-275,0.05,275,0.0529,1;0;0,1,103.4846,0.0,-1014.0,-661.0,1,0
33,104.2341,-78455.6831,-78351.4490,78456.5334,105.0845,0.3001,105.3846,0.3668,-275,0.2,275,0.2671,0;0.5;0,1,105.0016,1.0,1055.0,-708.0,1,1
34,105.7514,-78457.2004,-78351.4490,78458.1841,106.7351,0.3001,107.0352,0.3668,-275,0,275,0.0235,0;0.5;0,1,106.6442,1.0,1054.0,-690.0,1,1
35,107.4021,-78458.8510,-78351.4490,78460.0849,108.6359,0.3001,108.9360,0.3668,-275,0.05,275,0.0735,0;0.5;0,1,108.5531,1.0,1057.0,-685.0,1,1
36,109.3028,-78460.7518,-78351.4490,78461.3854,109.9364,0.3001,110.2366,0.3668,-275,0.05,275,0.6,0;0.5;0,1,109.8537,1.0,1056.0,-690.0,1,1
37,110.6034,-78462.0524,-78351.4490,78462.7360,111.2870,0.3001,111.5871,0.3668,275,0,-275,0.0235,0;0.5;0,0,111.1959,0.0,-1021.0,-663.0,1,1
38,111.9539,-78463.4029,-78351.4490,78464.1532,112.7042,0.3001,113.0043,0.3668,275,0.0167,-275,0.0838,0;0.5;0,0,112.6214,0.0,-1033.0,-647.0,1,1
39,113.3712,-78464.8201,-78351.4490,78465.5538,114.1048,0.3001,114.4049,0.3668,275,0.45,-275,0.4582,1;0;0,0,114.0220,1.0,1048.0,-688.0,1,0
40,114.7717,-78466.2207,-78351.4490,78467.1878,115.7388,0.3001,116.0389,0.3668,275,0.2,-275,0.2235,1;0;0,0,115.6477,1.0,1055.0,-680.0,1,0
41,116.4057,-78467.8547,-78351.4490,78468.8551,117.4061,0.3001,117.7063,0.3668,-275,0,275,0.1921,0;0.5;0,1,117.3150,1.0,1053.0,-690.0,1,1
42,118.0731,-78469.5221,-78351.4490,78470.3891,118.9401,0.3001,119.2402,0.3668,275,0.0167,-275,0.0249,1;0;0,0,118.8573,1.0,1052.0,-687.0,1,0
43,119.6070,-78471.0560,-78351.4490,78471.6062,120.1573,0.3001,120.4574,0.3668,-275,0.05,275,0.6,0;0.5;0,1,120.0663,1.0,1052.0,-687.0,1,1
44,120.8242,-78472.2732,-78351.4490,78472.6900,121.2410,0.3001,121.5412,0.3668,275,0.45,-275,0.4735,1;0;0,0,121.1584,1.0,1051.0,-690.0,1,0
45,121.9080,-78473.3570,-78351.4490,78474.7242,123.2752,0.3001,123.5753,0.3668,275,0.0167,-275,0.0402,0;0.5;0,0,123.1924,0.0,-1033.0,-644.0,1,1
46,123.9421,-78475.3911,-78351.4490,78476.6916,125.2427,0.3001,125.5428,0.3668,-275,0.0088,275,0.0117,0;0.5;0,1,125.1516,1.0,1041.0,-699.0,1,1
47,125.9096,-78477.3586,-78351.4490,78478.0422,126.5932,0.3001,126.8933,0.3668,275,0.05,-275,0.1171,0;0.5;0,0,126.5022,0.0,-1008.0,-670.0,1,1
48,127.2601,-78478.7091,-78351.4490,78479.7762,128.3273,0.3001,128.6274,0.3668,-275,0.0167,275,0.0177,0;0.5;0,1,128.2362,1.0,1038.0,-700.0,1,1
49,128.9942,-78480.4432,-78351.4490,78481.1768,129.7278,0.3001,130.0279,0.3668,275,0.05,-275,0.6,0;0.5;0,0,129.6452,0.0,-1001.0,-666.0,1,1
50,130.3948,-78481.8437,-78351.4490,78482.3940,130.9450,0.3001,131.2451,0.3668,275,0.0088,-275,0.017,0;0.5;0,0,130.8623,0.0,-1010.0,-638.0,1,1
51,131.6119,-78483.0609,-78351.4490,78483.6445,132.1955,0.3001,132.4956,0.3668,275,0.0088,-275,0.0759,0;0.5;0,0,132.1044,0.0,-1001.0,-647.0,1,1
52,132.8624,-78484.3114,-78351.4490,78485.0784,133.6294,0.3001,133.9295,0.3668,-275,0.0167,275,0.0249,0;0.5;0,1,133.5384,1.0,1040.0,-717.0,1,1
53,134.2963,-78485.7453,-78351.4490,78486.2622,134.8132,0.3001,135.1133,0.3668,-275,0.2,275,0.2235,1;0;0,1,134.7221,0.0,-1004.0,-632.0,1,0
54,135.4802,-78486.9291,-78351.4490,78487.5127,136.0637,0.3001,136.3639,0.3668,-275,0.2,275,0.2082,0;0.5;0,1,135.9810,1.0,1041.0,-714.0,1,1
55,136.7307,-78488.1797,-78351.4490,78488.7632,137.3142,0.3001,137.6144,0.3668,-275,0.0088,275,0.0759,0;0.5;0,1,137.2315,1.0,1039.0,-720.0,1,1
56,137.9812,-78489.4302,-78351.4490,78490.1471,138.6981,0.3001,138.9983,0.3668,275,0.2,-275,0.3921,0;0.5;0,0,138.6153,0.0,-1004.0,-643.0,1,1
57,139.3651,-78490.8141,-78351.4490,78491.2642,139.8153,0.3001,140.1154,0.3668,-275,0,275,0.0235,1;0;0,1,139.7326,0.0,-1004.0,-642.0,1,0
58,140.4822,-78491.9312,-78351.4490,78492.5481,141.0991,0.3001,141.3992,0.3668,275,0.45,-275,0.4735,0;0.5;0,0,141.0080,0.0,-1011.0,-649.0,1,1
59,141.7661,-78493.2150,-78351.4490,78494.2488,142.7998,0.3001,143.0999,0.3668,-275,0.2,275,1,0;0.5;0,1,142.7087,1.0,1045.0,-719.0,1,1
60,143.4667,-78494.9157,-78351.4490,78495.8828,144.4338,0.3001,144.7339,0.3668,-275,0,275,0.0082,0;0.5;0,1,144.3511,1.0,1039.0,-693.0,1,1
61,145.1007,-78496.5497,-78351.4490,78497.0666,145.6176,0.3001,145.9177,0.3668,-275,0.2,275,0.75,0;0.5;0,1,145.5349,1.0,1045.0,-709.0,1,1
62,146.2846,-78497.7335,-78351.4490,78498.3505,146.9015,0.3001,147.2016,0.3668,275,0,-275,0.0029,1;0;0,0,146.8189,1.0,1052.0,-704.0,1,0
63,147.5684,-78499.0174,-78351.4490,78499.5176,148.0686,0.3001,148.3687,0.3668,275,0.2,-275,0.2235,1;0;0,0,147.9859,1.0,1047.0,-710.0,1,0
64,148.7356,-78500.1845,-78351.4490,78500.9849,149.5359,0.3001,149.8360,0.3668,275,0.05,-275,0.1171,1;0;0,0,149.4449,1.0,1044.0,-706.0,1,0
65,150.2028,-78501.6518,-78351.4490,78503.6026,152.1536,0.3001,152.4537,0.3668,-275,0,275,0.0082,0;0.5;0,1,152.0626,1.0,1044.0,-651.0,1,1
66,152.8206,-78504.2695,-78351.4490,78504.4196,152.9706,0.3001,153.2707,0.3668,275,0.0088,-275,0.0098,0;0.5;0,0,152.8879,0.0,-999.0,-631.0,1,1
67,153.6376,-78505.0865,-78351.4490,78505.1866,153.7376,0.3001,154.0377,0.3668,-275,0.2,275,0.75,1;0;0,1,153.6466,0.0,-999.0,-621.0,1,0
68,154.4045,-78505.8535,-78351.4490,78506.8206,155.3716,0.3001,155.6717,0.3668,-275,0.45,275,0.4735,0;0.5;0,1,155.2806,1.0,1037.0,-669.0,1,1
69,156.0385,-78507.4875,-78351.4490,78507.7209,156.2720,0.3001,156.5721,0.3668,275,0.0167,-275,0.0249,0;0.5;0,0,156.1810,0.0,-1007.0,-604.0,1,1
70,156.9389,-78508.3879,-78351.4490,78509.0215,157.5725,0.3001,157.8726,0.3668,-275,0.45,275,1,0;0.5;0,1,157.4814,1.0,1044.0,-668.0,1,1
71,158.2394,-78509.6884,-78351.4490,78510.3387,158.8897,0.3001,159.1898,0.3668,275,0.45,-275,1,0;0.5;0,0,158.8069,0.0,-1005.0,-619.0,1,1
72,159.5566,-78511.0056,-78351.4490,78511.7226,160.2736,0.3001,160.5737,0.3668,275,0.05,-275,0.0735,1;0;0,0,160.1825,1.0,1045.0,-667.0,1,0
73,160.9405,-78512.3895,-78351.4490,78513.0731,161.6241,0.3001,161.9243,0.3668,275,0.0088,-275,0.0759,0;0.5;0,0,161.5414,0.0,-1011.0,-622.0,1,1
74,162.2911,-78513.7401,-78351.4490,78514.4403,162.9914,0.3001,163.2915,0.3668,275,0.05,-275,0.0582,0;0.5;0,0,162.9087,0.0,-1011.0,-614.0,1,1
75,163.6583,-78515.1073,-78351.4490,78515.8242,164.3753,0.3001,164.6754,0.3668,275,0.0167,-275,0.0402,0;0.5;0,0,164.2925,0.0,-1019.0,-617.0,1,1
76,165.0422,-78516.4912,-78351.4490,78516.9747,165.5257,0.3001,165.8258,0.3668,-275,0.0088,275,0.0098,1;0;0,1,165.4429,0.0,-1028.0,-594.0,1,0
77,166.1927,-78517.6416,-78351.4490,78517.8584,166.4094,0.3001,166.7095,0.3668,-275,0,275,0.0671,0;0.5;0,1,166.3184,1.0,1047.0,-658.0,1,1
78,167.0764,-78518.5253,-78351.4490,78519.2756,167.8267,0.3001,168.1268,0.3668,275,0.2,-275,0.3921,0;0.5;0,0,167.7440,0.0,-1003.0,-607.0,1,1
79,168.4936,-78519.9426,-78351.4490,78520.7096,169.2606,0.3001,169.5607,0.3668,-275,0.0167,275,0.0402,0;0.5;0,1,169.1778,1.0,1047.0,-671.0,1,1
80,169.9275,-78521.3765,-78351.4490,78521.8600,170.4110,0.3001,170.7112,0.3668,275,0,-275,0.001,1;0;0,0,170.3283,1.0,1051.0,-655.0,1,0
81,171.0780,-78522.5270,-78351.4490,78523.1105,171.6615,0.3001,171.9617,0.3668,-275,0.05,275,0.2421,0;0.5;0,1,171.5705,1.0,1050.0,-650.0,1,1
82,172.3285,-78523.7775,-78351.4490,78524.0943,172.6453,0.3001,172.9454,0.3668,275,0,-275,0.0029,1;0;0,0,172.5625,1.0,1051.0,-652.0,1,0
83,173.3122,-78524.7612,-78351.4490,78525.3114,173.8624,0.3001,174.1626,0.3668,275,0,-275,0.0671,0;0.5;0,0,173.7714,0.0,-1018.0,-594.0,1,1
84,174.5294,-78525.9784,-78351.4490,78526.5119,175.0629,0.3001,175.3631,0.3668,-275,0,275,0.0029,1;0;0,1,174.9802,0.0,-1015.0,-597.0,1,0
85,175.7299,-78527.1789,-78351.4490,78527.9959,176.5469,0.3001,176.8470,0.3668,275,0.45,-275,0.4735,1;0;0,0,176.4640,1.0,1046.0,-650.0,1,0
86,177.2138,-78528.6628,-78351.4490,78529.3964,177.9474,0.3001,178.2476,0.3668,-275,0.45,275,0.6421,0;0.5;0,1,177.8648,1.0,1044.0,-653.0,1,1
87,178.6144,-78530.0634,-78351.4490,78530.6803,179.2313,0.3001,179.5314,0.3668,275,0,-275,0.0671,0;0.5;0,0,179.1486,0.0,-1020.0,-587.0,1,1
88,179.8982,-78531.3472,-78351.4490,78532.1142,180.6652,0.3001,180.9653,0.3668,275,0.05,-275,0.0735,1;0;0,0,180.5742,1.0,1042.0,-664.0,1,0
89,181.3321,-78532.7811,-78351.4490,78533.6482,182.1992,0.3001,182.4993,0.3668,-275,0.0167,275,0.2088,1;0;0,1,182.1081,0.0,-1018.0,-591.0,1,0
90,182.8661,-78534.3151,-78351.4490,78534.4485,182.9995,0.3001,183.2996,0.3668,-275,0.0088,275,0.0323,1;0;0,1,182.9086,0.0,-1010.0,-594.0,1,0
91,183.6664,-78535.1154,-78351.4490,78535.4989,184.0499,0.3001,184.3500,0.3668,-275,0,275,0.0029,0;0.5;0,1,183.9672,1.0,1042.0,-670.0,1,1
92,184.7169,-78536.1658,-78351.4490,78537.6831,186.2341,0.3001,186.5343,0.3668,-275,0.05,275,0.0529,0;0.5;0,1,186.1514,1.0,1039.0,-669.0,1,1
93,186.9011,-78538.3501,-78351.4490,78539.6506,188.2016,0.3001,188.5017,0.3668,-275,0.0167,275,0.0402,0;0.5;0,1,188.1189,1.0,1035.0,-663.0,1,1
94,188.8685,-78540.3175,-78351.4490,78541.0178,189.5688,0.3001,189.8690,0.3668,-275,0.2,275,0.75,0;0.5;0,1,189.4860,1.0,1033.0,-662.0,1,1
95,190.2358,-78541.6848,-78351.4490,78541.9015,190.4525,0.3001,190.7526,0.3668,-275,0.0167,275,0.2088,0;0.5;0,1,190.3698,1.0,1025.0,-665.0,1,1
96,191.1195,-78542.5684,-78351.4490,78543.0687,191.6197,0.3001,191.9198,0.3668,275,0.2,-275,1,0;0.5;0,0,191.5285,0.0,-1005.0,-604.0,1,1
97,192.2866,-78543.7356,-78351.4490,78544.4692,193.0202,0.3001,193.3204,0.3668,-275,0,275,0.0082,1;0;0,1,192.9375,0.0,-1009.0,-597.0,1,0
98,193.6872,-78545.1362,-78351.4490,78545.7864,194.3374,0.3001,194.6376,0.3668,-275,0,275,0.0671,0;0.5;0,1,194.2547,1.0,1021.0,-664.0,1,1
99,195.0044,-78546.4534,-78351.4490,78547.0536,195.6046,0.3001,195.9047,0.3668,275,0.45,-275,0.6421,0;0.5;0,0,195.5219,0.0,-999.0,-599.0,1,1
100,196.2716,-78547.7205,-78351.4490,78548.2874,196.8385,0.3001,197.1386,0.3668,275,0.2,-275,1,0;0.5;0,0,196.7473,0.0,-1001.0,-591.0,1,1
101,197.5054,-78548.9544,-78351.4490,78549.5046,198.0556,0.3001,198.3557,0.3668,275,0.0088,-275,0.0759,0;0.5;0,0,197.9728,0.0,-1008.0,-589.0,1,1
102,198.7226,-78550.1715,-78351.4490,78550.4717,199.0227,0.3001,199.3228,0.3668,-275,0,275,0.0082,0;0.5;0,1,198.9317,1.0,1026.0,-661.0,1,1
103,199.6896,-78551.1386,-78351.4490,78551.2887,199.8397,0.3001,200.1398,0.3668,275,0.0088,-275,0.0117,0;0.5;0,0,199.7570,0.0,-1002.0,-584.0,1,1
104,200.5066,-78551.9556,-78351.4490,78552.8726,201.4237,0.3001,201.7238,0.3668,-275,0.45,275,0.5171,0;0.5;0,1,201.3411,1.0,1024.0,-666.0,1,1
105,202.0906,-78553.5396,-78351.4490,78554.0231,202.5741,0.3001,202.8742,0.3668,275,0.2,-275,0.2671,0;0.5;0,0,202.4832,0.0,-1002.0,-589.0,1,1
106,203.2411,-78554.6900,-78351.4490,78555.2403,203.7913,0.3001,204.0914,0.3668,-275,0.0088,275,0.0759,0;0.5;0,1,203.7002,1.0,1029.0,-666.0,1,1
107,204.4582,-78555.9072,-78351.4490,78556.2907,204.8417,0.3001,205.1418,0.3668,-275,0,275,0.0082,0;0.5;0,1,204.7590,1.0,1025.0,-659.0,1,1
108,205.5086,-78556.9576,-78351.4490,78557.5912,206.1422,0.3001,206.4424,0.3668,275,0.05,-275,0.0735,1;0;0,0,206.0513,1.0,1028.0,-659.0,1,0
109,206.8092,-78558.2582,-78351.4490,78558.6917,207.2427,0.3001,207.5428,0.3668,275,0.2,-275,0.2671,1;0;0,0,207.1516,1.0,1033.0,-671.0,1,0
110,207.9096,-78559.3586,-78351.4490,78560.3590,208.9100,0.3001,209.2102,0.3668,275,0.0167,-275,0.0196,1;0;0,0,208.8273,1.0,1031.0,-673.0,1,0
111,209.5770,-78561.0260,-78351.4490,78561.2761,209.8271,0.3001,210.1272,0.3668,-275,0.0088,275,0.0117,0;0.5;0,1,209.7443,1.0,1037.0,-680.0,1,1
112,210.4940,-78561.9430,-78351.4490,78562.3932,210.9442,0.3001,211.2443,0.3668,275,0,-275,0.1921,1;0;0,0,210.8614,1.0,1037.0,-662.0,1,0
113,211.6111,-78563.0601,-78351.4490,78563.4769,212.0280,0.3001,212.3281,0.3668,-275,0.2,275,0.2082,1;0;0,1,211.9369,0.0,-1001.0,-569.0,1,0
114,212.6949,-78564.1439,-78351.4490,78564.8942,213.4452,0.3001,213.7453,0.3668,-275,0.45,275,1,0;0.5;0,1,213.3624,1.0,1033.0,-661.0,1,1
115,214.1121,-78565.5611,-78351.4490,78565.7779,214.3289,0.3001,214.6290,0.3668,275,0.2,-275,1,0;0.5;0,0,214.2379,0.0,-994.0,-580.0,1,1
116,214.9958,-78566.4448,-78351.4490,78566.9950,215.5461,0.3001,215.8462,0.3668,-275,0.2,275,0.2082,0;0.5;0,1,215.4549,1.0,1035.0,-662.0,1,1
117,216.2130,-78567.6620,-78351.4490,78568.1455,216.6965,0.3001,216.9967,0.3668,275,0.0167,-275,0.0838,0;0.5;0,0,216.6053,0.0,-990.0,-580.0,1,1
118,217.3635,-78568.8125,-78351.4490,78569.6961,218.2472,0.3001,218.5473,0.3668,275,0.0167,-275,0.0177,0;0.5;0,0,218.1644,0.0,-993.0,-594.0,1,1
119,218.9141,-78570.3631,-78351.4490,78570.9633,219.5143,0.3001,219.8145,0.3668,-275,0,275,0.0671,0;0.5;0,1,219.4316,1.0,1043.0,-661.0,1,1
120,220.1813,-78571.6303,-78351.4490,78572.2138,220.7648,0.3001,221.0650,0.3668,275,0,-275,0.1921,0;0.5;0,0,220.6823,0.0,-995.0,-588.0,1,1
121,221.4318,-78572.8808,-78351.4490,78573.3476,221.8986,0.3001,222.1988,0.3668,-275,0.05,275,0.1171,0;0.5;0,1,221.8077,1.0,1037.0,-662.0,1,1
122,222.5656,-78574.0146,-78351.4490,78574.8649,223.4159,0.3001,223.7160,0.3668,-275,0.0088,275,0.017,0;0.5;0,1,223.3332,1.0,1036.0,-656.0,1,1
123,224.0829,-78575.5318,-78351.4490,78575.7653,224.3163,0.3001,224.6164,0.3668,275,0,-275,0.0082,0;0.5;0,0,224.2253,0.0,-996.0,-585.0,1,1
124,224.9832,-78576.4322,-78351.4490,78576.9991,225.5501,0.3001,225.8502,0.3668,275,0.05,-275,0.6,0;0.5;0,0,225.4591,0.0,-992.0,-594.0,1,1
125,226.2171,-78577.6660,-78351.4490,78578.7998,227.3509,0.3001,227.6510,0.3668,275,0.0088,-275,0.0098,1;0;0,0,227.2682,1.0,1036.0,-647.0,1,0
126,228.0178,-78579.4668,-78351.4490,78580.1504,228.7014,0.3001,229.0015,0.3668,-275,0.0167,275,0.0402,0;0.5;0,1,228.6187,1.0,1037.0,-646.0,1,1
127,229.3683,-78580.8173,-78351.4490,78581.3676,229.9186,0.3001,230.2187,0.3668,-275,0,275,0.0082,0;0.5;0,1,229.8359,1.0,1034.0,-649.0,1,1
128,230.5855,-78582.0345,-78351.4490,78582.2512,230.8023,0.3001,231.1024,0.3668,275,0.05,-275,0.6,0;0.5;0,0,230.7112,0.0,-993.0,-586.0,1,1
129,231.4692,-78582.9182,-78351.4490,78583.5351,232.0861,0.3001,232.3862,0.3668,275,0.0167,-275,0.0402,1;0;0,0,231.9950,1.0,1035.0,-647.0,1,0
130,232.7531,-78584.2020,-78351.4490,78584.5188,233.0698,0.3001,233.3700,0.3668,-275,0,275,0.001,1;0;0,1,232.9787,0.0,-991.0,-583.0,1,0
131,233.7368,-78585.1858,-78351.4490,78585.9694,234.5204,0.3001,234.8206,0.3668,275,0,-275,0.0082,1;0;0,0,234.4377,1.0,1039.0,-650.0,1,0
132,235.1874,-78586.6364,-78351.4490,78587.2366,235.7876,0.3001,236.0877,0.3668,275,0.0088,-275,0.0759,0;0.5;0,0,235.7048,0.0,-984.0,-591.0,1,1
133,236.4546,-78587.9035,-78351.4490,78588.5371,237.0881,0.3001,237.3883,0.3668,-275,0.0088,275,0.2009,0;0.5;0,1,236.9971,1.0,1033.0,-659.0,1,1
134,237.7551,-78589.2041,-78351.4490,78589.7876,238.3387,0.3001,238.6388,0.3668,275,0.0167,-275,0.0249,0;0.5;0,0,238.2478,0.0,-987.0,-591.0,1,1
135,239.0056,-78590.4546,-78351.4490,78591.0548,239.6058,0.3001,239.9060,0.3668,275,0.05,-275,0.2421,0;0.5;0,0,239.5149,0.0,-979.0,-582.0,1,1
136,240.2728,-78591.7218,-78351.4490,78592.0552,240.6062,0.3001,240.9064,0.3668,275,0.2,-275,0.2082,0;0.5;0,0,240.5235,0.0,-984.0,-592.0,1,1
137,241.2732,-78592.7222,-78351.4490,78593.4891,242.0402,0.3001,242.3403,0.3668,-275,0.0088,275,0.0759,0;0.5;0,1,241.9491,1.0,1028.0,-662.0,1,1
138,242.7071,-78594.1561,-78351.4490,78594.5562,243.1073,0.3001,243.4074,0.3668,275,0.05,-275,0.1171,0;0.5;0,0,243.0244,0.0,-986.0,-587.0,1,1
139,243.7742,-78595.2232,-78351.4490,78596.9572,245.5082,0.3001,245.8084,0.3668,-275,0,275,0.001,0;0.5;0,1,245.4172,1.0,1029.0,-659.0,1,1
140,246.1752,-78597.6242,-78351.4490,78598.0076,246.5587,0.3001,246.8588,0.3668,275,0.0167,-275,0.0177,1;0;0,0,246.4759,1.0,1031.0,-656.0,1,0
141,247.2256,-78598.6746,-78351.4490,78598.9247,247.4757,0.3001,247.7758,0.3668,275,0.2,-275,0.75,1;0;0,0,247.3848,1.0,1030.0,-653.0,1,0
142,248.1426,-78599.5916,-78351.4490,78600.3253,248.8763,0.3001,249.1764,0.3668,275,0.45,-275,0.6421,0;0.5;0,0,248.7935,0.0,-971.0,-585.0,1,1
143,249.5432,-78600.9922,-78351.4490,78601.3423,249.8934,0.3001,250.1935,0.3668,-275,0.0088,275,0.0117,1;0;0,1,249.8106,0.0,-981.0,-580.0,1,0
144,250.5603,-78602.0093,-78351.4490,78602.2260,250.7770,0.3001,251.0772,0.3668,-275,0.05,275,0.6,0;0.5;0,1,250.6860,1.0,1028.0,-640.0,1,1
145,251.4440,-78602.8930,-78351.4490,78603.3932,251.9442,0.3001,252.2443,0.3668,275,0.0088,-275,0.0323,1;0;0,0,251.8616,1.0,1028.0,-649.0,1,0
146,252.6111,-78604.0601,-78351.4490,78605.2272,253.7783,0.3001,254.0784,0.0000,275,0.0088,-275,0.2009,1;0;0,0,253.6955,1.0,1025.0,-649.0,1,0
147,254.0784,-78605.5274,-78351.4490,78605.9442,254.4952,0.3001,254.7953,0.3668,275,0,-275,0.0082,1;0;0,0,254.4124,1.0,1025.0,-647.0,1,0
148,255.1622,-78606.6111,-78351.4490,78607.3114,255.8624,0.3001,256.1626,0.3668,275,0.05,-275,0.2421,0;0.5;0,0,255.7714,0.0,-975.0,-592.0,1,1
149,256.5294,-78607.9784,-78351.4490,78608.6953,257.2463,0.3001,257.5465,0.3668,-275,0.05,275,0.0582,1;0;0,1,257.1554,0.0,-976.0,-590.0,1,0
150,257.9133,-78609.3623,-78351.4490,78610.0792,258.6302,0.3001,258.9304,0.3668,275,0.0167,-275,0.0177,1;0;0,0,258.5392,1.0,1027.0,-652.0,1,0
151,259.2972,-78610.7462,-78351.4490,78610.9462,259.4973,0.3001,259.7974,0.3668,-275,0.0167,275,0.0249,1;0;0,1,259.4062,0.0,-976.0,-588.0,1,0
152,260.1642,-78611.6132,-78351.4490,78612.2301,260.7811,0.3001,261.0812,0.3668,-275,0.2,275,1,0;0.5;0,1,260.6901,1.0,1028.0,-636.0,1,1
153,261.4480,-78612.8970,-78351.4490,78613.4306,261.9816,0.3001,262.2817,0.3668,275,0.2,-275,0.2082,0;0.5;0,0,261.8989,0.0,-978.0,-585.0,1,1
154,262.6485,-78614.0975,-78351.4490,78614.5144,263.0654,0.3001,263.3655,0.3668,-275,0.0167,275,0.0838,0;0.5;0,1,262.9743,1.0,1027.0,-644.0,1,1
155,263.7323,-78615.1813,-78351.4490,78615.8149,264.3659,0.3001,264.6660,0.3668,-275,0.2,275,0.2082,1;0;0,1,264.2833,0.0,-976.0,-587.0,1,0
156,265.0328,-78616.4818,-78351.4490,78616.9820,265.5330,0.3001,265.8332,0.3668,-275,0.05,275,0.0529,0;0.5;0,1,265.4504,1.0,1027.0,-643.0,1,1
157,266.2000,-78617.6490,-78351.4490,78618.2492,266.8002,0.3001,267.1003,0.3668,275,0.0167,-275,0.0838,1;0;0,0,266.7092,1.0,1021.0,-632.0,1,0
158,267.4672,-78618.9161,-78351.4490,78619.4830,268.0341,0.3001,268.3342,0.3668,-275,0.45,275,0.6421,1;0;0,1,267.9430,0.0,-1071.0,-381.0,1,0
159,268.7010,-78620.1500,-78351.4490,78621.0003,269.5513,0.3001,269.8515,0.3668,-275,0.0088,275,0.0098,0;0.5;0,1,269.4602,1.0,975.0,-627.0,1,1
160,270.2183,-78621.6673,-78351.4490,78622.3342,270.8852,0.3001,271.1853,0.3668,275,0,-275,0.0029,1;0;0,0,270.8024,1.0,977.0,-556.0,1,0
161,271.5521,-78623.0011,-78351.4490,78623.2512,271.8023,0.3001,272.1024,0.3668,275,0.0088,-275,0.0759,0;0.5;0,0,271.7197,0.0,-957.0,-568.0,1,1
162,272.4692,-78623.9182,-78351.4490,78624.1349,272.6859,0.3001,272.9861,0.3668,-275,0.45,275,0.5171,1;0;0,1,272.6032,0.0,-948.0,-562.0,1,0
163,273.3529,-78624.8019,-78351.4490,78625.0019,273.5530,0.3001,273.8531,0.3668,-275,0.45,275,0.4735,0;0.5;0,1,273.4701,1.0,974.0,-565.0,1,1
164,274.2199,-78625.6689,-78351.4490,78626.5693,275.1203,0.3001,275.4204,0.3668,275,0.2,-275,0.2671,0;0.5;0,0,275.0291,0.0,-955.0,-555.0,1,1
165,275.7872,-78627.2362,-78351.4490,78627.4363,275.9873,0.3001,276.2874,0.3668,275,0.0088,-275,0.0117,1;0;0,0,275.9046,1.0,978.0,-578.0,1,0
166,276.6542,-78628.1032,-78351.4490,78628.1866,276.7376,0.3001,277.0377,0.3668,275,0.0088,-275,0.0098,1;0;0,0,276.6548,1.0,974.0,-568.0,1,0
167,277.4045,-78628.8535,-78351.4490,78629.0036,277.5546,0.3001,277.8547,0.3668,275,0.2,-275,0.2235,0;0.5;0,0,277.4717,0.0,-956.0,-558.0,1,1
168,278.2215,-78629.6705,-78351.4490,78630.0040,278.5550,0.3001,278.8551,0.3668,275,0.0088,-275,0.0759,0;0.5;0,0,278.4723,0.0,-956.0,-558.0,1,1
169,279.2219,-78630.6709,-78351.4490,78630.9377,279.4887,0.3001,279.7888,0.3668,275,0,-275,0.0082,0;0.5;0,0,279.3977,0.0,-957.0,-555.0,1,1
170,280.1556,-78631.6046,-78351.4490,78632.0882,280.6392,0.3001,280.9393,0.3668,-275,0,275,0.0235,1;0;0,1,280.5481,0.0,-956.0,-554.0,1,0
171,281.3061,-78632.7551,-78351.4490,78632.8885,281.4395,0.3001,281.7396,0.3668,-275,0.2,275,0.2082,0;0.5;0,1,281.3484,1.0,973.0,-574.0,1,1
172,282.1064,-78633.5554,-78351.4490,78633.8555,282.4066,0.3001,282.7067,0.3668,275,0.0167,-275,0.0196,0;0.5;0,0,282.3239,0.0,-951.0,-555.0,1,1
173,283.0735,-78634.5225,-78351.4490,78634.7893,283.3403,0.3001,283.6404,0.3668,275,0,-275,0.0235,0;0.5;0,0,283.2576,0.0,-952.0,-560.0,1,1
174,284.0072,-78635.4562,-78351.4490,78636.1231,284.6741,0.3001,284.9743,0.3668,275,0.05,-275,0.0582,1;0;0,0,284.5914,1.0,980.0,-584.0,1,0
175,285.3411,-78636.7901,-78351.4490,78637.3069,285.8580,0.3001,286.1581,0.3668,275,0.2,-275,0.2082,0;0.5;0,0,285.7752,0.0,-947.0,-560.0,1,1
176,286.5249,-78637.9739,-78351.4490,78638.2573,286.8083,0.3001,287.1085,0.3668,-275,0.0167,275,0.0249,1;0;0,1,286.7256,0.0,-955.0,-556.0,1,0
177,287.4753,-78638.9243,-78351.4490,78639.0743,287.6253,0.3001,287.9255,0.3668,-275,0.45,275,0.4735,1;0;0,1,287.5343,0.0,-952.0,-556.0,1,0
178,288.2923,-78639.7413,-78351.4490,78640.4916,289.0426,0.3001,289.3427,0.3668,-275,0.2,275,0.2671,0;0.5;0,1,288.9516,1.0,975.0,-594.0,1,1
179,289.7095,-78641.1585,-78351.4490,78641.7254,290.2764,0.3001,290.5765,0.3668,275,0.2,-275,0.2235,1;0;0,0,290.1937,1.0,976.0,-594.0,1,0
180,290.9434,-78642.3923,-78351.4490,78642.6424,291.1935,0.3001,291.4936,0.3668,-275,0.45,275,0.4582,1;0;0,1,291.1024,0.0,-951.0,-557.0,1,0
181,291.8604,-78643.3094,-78351.4490,78643.5261,292.0772,0.3001,292.3773,0.3668,-275,0.0088,275,0.0759,1;0;0,1,291.9862,0.0,-951.0,-554.0,1,0
182,292.7441,-78644.1931,-78351.4490,78644.8433,293.3944,0.3001,293.6945,0.3668,-275,0.0167,275,0.0838,0;0.5;0,1,293.3032,1.0,969.0,-611.0,1,1
183,294.0613,-78645.5103,-78351.4490,78646.3439,294.8950,0.3001,295.1951,0.3668,275,0.0088,-275,0.0117,1;0;0,0,294.8040,1.0,969.0,-596.0,1,0
184,295.5619,-78647.0109,-78351.4490,78647.7445,296.2955,0.3001,296.5957,0.3668,-275,0.2,275,0.3921,0;0.5;0,1,296.2130,1.0,970.0,-597.0,1,1
185,296.9625,-78648.4115,-78351.4490,78648.8950,297.4460,0.3001,297.7461,0.3668,-275,0.05,275,0.2421,0;0.5;0,1,297.3550,1.0,970.0,-603.0,1,1
186,298.1129,-78649.5619,-78351.4490,78650.0121,298.5631,0.3001,298.8632,0.3668,-275,0.45,275,0.6421,0;0.5;0,1,298.4721,1.0,973.0,-602.0,1,1
187,299.2301,-78650.6790,-78351.4490,78650.9125,299.4635,0.3001,299.7636,0.3668,-275,0.0088,275,0.0098,0;0.5;0,1,299.3724,1.0,970.0,-599.0,1,1
188,300.1304,-78651.5794,-78351.4490,78651.8462,300.3972,0.3001,300.6973,0.3668,-275,0.0088,275,0.0098,0;0.5;0,1,300.3062,1.0,976.0,-591.0,1,1
189,301.0641,-78652.5131,-78351.4490,78652.7299,301.2809,0.3001,301.5810,0.0000,275,0.0088,-275,0.2009,1;0;0,0,301.1981,1.0,983.0,-585.0,1,0
190,301.5810,-78653.0300,-78351.4490,78653.4468,301.9978,0.3001,302.2980,0.3668,-275,0.05,275,0.6,0;0.5;0,1,301.9151,1.0,985.0,-595.0,1,1
191,302.6648,-78654.1138,-78351.4490,78654.5306,303.0816,0.3001,303.3817,0.3668,-275,0.0167,275,0.0196,0;0.5;0,1,302.9906,1.0,975.0,-604.0,1,1
192,303.7486,-78655.1975,-78351.4490,78655.9145,304.4655,0.3001,304.7656,0.3668,-275,0.05,275,0.0582,1;0;0,1,304.3746,0.0,-958.0,-571.0,1,0
193,305.1325,-78656.5814,-78351.4490,78657.4151,305.9661,0.3001,306.2662,0.3668,275,0.0167,-275,0.2088,0;0.5;0,0,305.8834,0.0,-947.0,-580.0,1,1
194,306.6331,-78658.0820,-78351.4490,78658.1821,306.7331,0.3001,307.0332,0.3668,-275,0.0167,275,0.0177,1;0;0,1,306.6504,0.0,-953.0,-565.0,1,0
195,307.4000,-78658.8490,-78351.4490,78659.2659,307.8169,0.3001,308.1170,0.3668,275,0.05,-275,0.0582,1;0;0,0,307.7342,1.0,975.0,-587.0,1,0
196,308.4838,-78659.9328,-78351.4490,78660.1162,308.6672,0.3001,308.9673,0.3668,-275,0.45,275,0.4735,0;0.5;0,1,308.5845,1.0,975.0,-584.0,1,1
197,309.3342,-78660.7831,-78351.4490,78660.9665,309.5176,0.3001,309.8177,0.3668,275,0.0167,-275,0.0249,1;0;0,0,309.4348,1.0,978.0,-584.0,1,0
198,310.1845,-78661.6335,-78351.4490,78661.9169,310.4680,0.3001,310.7681,0.3668,275,0,-275,0.1921,1;0;0,0,310.3852,1.0,975.0,-582.0,1,0
199,311.1349,-78662.5839,-78351.4490,78662.8173,311.3683,0.3001,311.6684,0.3668,-275,0,275,0.1921,0;0.5;0,1,311.2773,1.0,980.0,-573.0,1,1
200,312.0353,-78663.4842,-78351.4490,78663.6843,312.2353,0.3001,312.5355,0.3668,-275,0.0167,275,0.0177,1;0;0,1,312.1442,0.0,-958.0,-569.0,1,0
201,312.9023,-78664.3513,-78351.4490,78664.5347,313.0857,0.3001,313.3858,0.3668,275,0.2,-275,0.2235,0;0.5;0,0,312.9947,0.0,-957.0,-560.0,1,1
202,313.7526,-78665.2016,-78351.4490,78666.1020,314.6530,0.3001,314.9531,0.3668,-275,0.45,275,1,0;0.5;0,1,314.5619,1.0,981.0,-576.0,1,1
203,315.3199,-78666.7689,-78351.4490,78668.2195,316.7705,0.3001,317.0706,0.3668,275,0,-275,0.001,1;0;0,0,316.6879,1.0,980.0,-576.0,1,0
204,317.4374,-78668.8864,-78351.4490,78669.5534,318.1044,0.3001,318.4045,0.3668,-275,0.2,275,0.75,0;0.5;0,1,318.0133,1.0,975.0,-575.0,1,1
205,318.7713,-78670.2203,-78351.4490,78670.6705,319.2215,0.3001,319.5216,0.3668,275,0.45,-275,0.6421,1;0;0,0,319.1388,1.0,974.0,-572.0,1,0
206,319.8884,-78671.3374,-78351.4490,78672.0210,320.5721,0.3001,320.8722,0.3668,275,0,-275,0.001,0;0.5;0,0,320.4894,0.0,-952.0,-556.0,1,1
207,321.2390,-78672.6880,-78351.4490,78673.0881,321.6392,0.3001,321.9393,0.3668,275,0.0088,-275,0.0117,1;0;0,0,321.5564,1.0,981.0,-573.0,1,0
208,322.3061,-78673.7551,-78351.4490,78673.8551,322.4061,0.3001,322.7063,0.3668,275,0.0088,-275,0.017,0;0.5;0,0,322.3234,0.0,-954.0,-556.0,1,1
209,323.0731,-78674.5221,-78351.4490,78674.6554,323.2065,0.3001,323.5066,0.3668,-275,0.0088,275,0.017,1;0;0,1,323.1155,0.0,-954.0,-550.0,1,0
210,323.8734,-78675.3224,-78351.4490,78675.4891,324.0401,0.3001,324.3402,0.0000,275,0,-275,0.001,0;0.5;0,0,323.9491,0.0,-957.0,-543.0,1,1
211,324.3402,-78675.7892,-78351.4490,78676.2061,324.7571,0.3001,325.0572,0.3668,275,0.05,-275,0.0529,0;0.5;0,0,324.6660,0.0,-956.0,-541.0,1,1
212,325.4240,-78676.8730,-78351.4490,78677.8401,326.3911,0.3001,326.6912,0.3668,-275,0.2,275,0.3921,0;0.5;0,1,326.3001,1.0,973.0,-561.0,1,1
213,327.0580,-78678.5070,-78351.4490,78679.5408,328.0918,0.3001,328.3919,0.3668,-275,0.2,275,0.2235,1;0;0,1,328.0090,0.0,-953.0,-527.0,1,0
214,328.7587,-78680.2077,-78351.4490,78681.0580,329.6091,0.3001,329.9092,0.3668,275,0.2,-275,0.2082,0;0.5;0,0,329.5181,0.0,-943.0,-526.0,1,1
215,330.2760,-78681.7250,-78351.4490,78681.9584,330.5094,0.3001,330.8095,0.3668,275,0,-275,0.0671,0;0.5;0,0,330.4184,0.0,-947.0,-532.0,1,1
216,331.1764,-78682.6253,-78351.4490,78682.9088,331.4598,0.3001,331.7599,0.0000,275,0.0167,-275,0.0402,0;0.5;0,0,331.3687,0.0,-944.0,-529.0,1,1
217,331.7599,-78683.2089,-78351.4490,78683.6257,332.1768,0.3001,332.4769,0.3668,275,0.0088,-275,0.2009,0;0.5;0,0,332.0858,0.0,-939.0,-532.0,1,1
218,332.8437,-78684.2927,-78351.4490,78684.4761,333.0271,0.3001,333.3272,0.3668,275,0.2,-275,0.2082,0;0.5;0,0,332.9361,0.0,-940.0,-529.0,1,1
219,333.6940,-78685.1430,-78351.4490,78685.3264,333.8775,0.3001,334.1776,0.3668,-275,0.0088,275,0.0759,1;0;0,1,333.7864,0.0,-942.0,-527.0,1,0
220,334.5444,-78685.9934,-78351.4490,78686.4769,335.0279,0.3001,335.3280,0.3668,-275,0.0167,275,0.0177,0;0.5;0,1,334.9452,1.0,972.0,-558.0,1,1
221,335.6949,-78687.1438,-78351.4490,78687.5940,336.1450,0.3001,336.4452,0.3668,275,0.05,-275,0.1171,0;0.5;0,0,336.0540,0.0,-923.0,-532.0,1,1
222,336.8120,-78688.2610,-78351.4490,78688.6111,337.1621,0.3001,337.4622,0.3668,-275,0.05,275,0.0582,0;0.5;0,1,337.0710,1.0,967.0,-560.0,1,1
223,337.8291,-78689.2780,-78351.4490,78689.5115,338.0625,0.3001,338.3626,0.3668,275,0.45,-275,1,0;0.5;0,0,337.9797,0.0,-922.0,-530.0,1,1
224,338.7294,-78690.1784,-78351.4490,78690.9787,339.5297,0.3001,339.8299,0.3668,275,0.0088,-275,0.017,1;0;0,0,339.4387,1.0,970.0,-562.0,1,0
225,340.1967,-78691.6457,-78351.4490,78692.2793,340.8303,0.3001,341.1304,0.3668,-275,0.0088,275,0.0117,1;0;0,1,340.7393,0.0,-919.0,-517.0,1,0
226,341.4972,-78692.9462,-78351.4490,78693.3797,341.9307,0.3001,342.2308,0.3668,275,0.0167,-275,0.0196,1;0;0,0,341.8397,1.0,964.0,-545.0,1,0
227,342.5977,-78694.0466,-78351.4490,78694.4635,343.0145,0.3001,343.3146,0.3668,275,0.0167,-275,0.0177,1;0;0,0,342.9233,1.0,970.0,-554.0,1,0
228,343.6814,-78695.1304,-78351.4490,78695.4305,343.9816,0.3001,344.2817,0.3668,275,0.0088,-275,0.0323,1;0;0,0,343.8987,1.0,961.0,-544.0,1,0
229,344.6485,-78696.0975,-78351.4490,78696.8645,345.4155,0.3001,345.7156,0.3668,-275,0,275,0.1921,1;0;0,1,345.3243,0.0,-914.0,-508.0,1,0
230,346.0824,-78697.5314,-78351.4490,78697.6814,346.2325,0.3001,346.5326,0.3668,-275,0.05,275,0.0735,0;0.5;0,1,346.1498,1.0,952.0,-536.0,1,1
231,346.8994,-78698.3484,-78351.4490,78699.5989,348.1499,0.3001,348.4500,0.3668,-275,0.45,275,0.4735,0;0.5;0,1,348.0673,1.0,961.0,-532.0,1,1
232,348.8168,-78700.2658,-78351.4490,78700.9161,349.4671,0.3001,349.7672,0.3668,-275,0.0088,275,0.0323,0;0.5;0,1,349.3761,1.0,957.0,-539.0,1,1
233,350.1340,-78701.5830,-78351.4490,78702.2833,350.8343,0.3001,351.1345,0.3668,275,0.2,-275,0.2671,1;0;0,0,350.7433,1.0,961.0,-535.0,1,0
234,351.5013,-78702.9503,-78351.4490,78703.5672,352.1182,0.3001,352.4183,0.3668,-275,0.45,275,1,0;0.5;0,1,352.0354,1.0,964.0,-527.0,1,1
235,352.7851,-78704.2341,-78351.4490,78704.3675,352.9185,0.3001,353.2186,0.3668,-275,0,275,0.0029,0;0.5;0,1,352.8274,1.0,962.0,-524.0,1,1
236,353.5854,-78705.0344,-78351.4490,78705.7347,354.2857,0.3001,354.5859,0.3668,275,0.45,-275,1,0;0.5;0,0,354.1946,0.0,-923.0,-512.0,1,1
237,354.9527,-78706.4017,-78351.4490,78706.9852,355.5362,0.3001,355.8364,0.3668,275,0.05,-275,0.0735,0;0.5;0,0,355.4535,0.0,-927.0,-507.0,1,1
238,356.2032,-78707.6522,-78351.4490,78708.3691,356.9201,0.3001,357.2203,0.3668,275,0.45,-275,0.6421,0;0.5;0,0,356.8292,0.0,-928.0,-509.0,1,1
239,357.5871,-78709.0361,-78351.4490,78709.2528,357.8038,0.3001,358.1039,0.3668,275,0.05,-275,0.0529,0;0.5;0,0,357.7127,0.0,-930.0,-503.0,1,1
240,358.4708,-78709.9197,-78351.4490,78710.7367,359.2878,0.3001,359.5879,0.3668,-275,0.05,275,0.1171,0;0.5;0,1,359.2051,1.0,962.0,-521.0,1,1
241,359.9547,-78711.4037,-78351.4490,78711.7872,360.3382,0.3001,360.6383,0.3668,275,0.2,-275,0.3921,1;0;0,0,360.2554,1.0,963.0,-527.0,1,0
242,361.0051,-78712.4541,-78351.4490,78712.8543,361.4053,0.3001,361.7054,0.3668,-275,0.0167,275,0.2088,1;0;0,1,361.3226,0.0,-922.0,-508.0,1,0
243,362.0722,-78713.5212,-78351.4490,78713.9380,362.4891,0.3001,362.7892,0.3668,275,0,-275,0.0671,0;0.5;0,0,362.3981,0.0,-925.0,-507.0,1,1
244,363.1560,-78714.6050,-78351.4490,78714.8051,363.3561,0.3001,363.6562,0.3668,-275,0.0167,275,0.0177,1;0;0,1,363.2651,0.0,-927.0,-511.0,1,0
245,364.0230,-78715.4720,-78351.4490,78716.0556,364.6066,0.3001,364.9067,0.3668,275,0.2,-275,0.2671,1;0;0,0,364.5155,1.0,966.0,-519.0,1,0
246,365.2735,-78716.7225,-78351.4490,78716.8892,365.4403,0.3001,365.7404,0.3668,-275,0,275,0.001,0;0.5;0,1,365.3576,1.0,967.0,-518.0,1,1
247,366.1072,-78717.5562,-78351.4490,78718.4899,367.0409,0.3001,367.3410,0.3668,275,0.05,-275,0.0529,1;0;0,0,366.9581,1.0,965.0,-521.0,1,0
248,367.7078,-78719.1568,-78351.4490,78720.5574,369.1084,0.3001,369.4085,0.3668,275,0.05,-275,0.0582,0;0.5;0,0,369.0257,0.0,-925.0,-508.0,1,1
249,369.7753,-78721.2243,-78351.4490,78721.4244,369.9754,0.3001,370.2756,0.3668,-275,0,275,0.001,1;0;0,1,369.8927,0.0,-927.0,-508.0,1,0
250,370.6424,-78722.0914,-78351.4490,78722.2914,370.8424,0.3001,371.1426,0.3668,275,0.2,-275,0.3921,0;0.5;0,0,370.7597,0.0,-936.0,-501.0,1,1
251,371.5094,-78722.9584,-78351.4490,78723.2251,371.7762,0.3001,372.0763,0.0000,275,0.2,-275,1,0;0.5;0,0,371.6852,0.0,-937.0,-498.0,1,1
252,372.0763,-78723.5253,-78351.4490,78723.9421,372.4931,0.3001,372.7932,0.3668,275,0,-275,0.0029,0;0.5;0,0,372.4104,0.0,-932.0,-502.0,1,1
253,373.1601,-78724.6090,-78351.4490,78724.7591,373.3101,0.3001,373.6102,0.3668,-275,0.0088,275,0.0117,1;0;0,1,373.2192,0.0,-927.0,-507.0,1,0
254,373.9771,-78725.4260,-78351.4490,78725.8095,374.3605,0.3001,374.6607,0.3668,-275,0.0088,275,0.0759,0;0.5;0,1,374.2778,1.0,959.0,-517.0,1,1
255,375.0275,-78726.4765,-78351.4490,78727.2268,375.7778,0.3001,376.0779,0.3668,-275,0.0167,275,0.0196,1;0;0,1,375.6951,0.0,-924.0,-509.0,1,0
256,376.4447,-78727.8937,-78351.4490,78728.7274,377.2784,0.3001,377.5785,0.3668,-275,0.2,275,0.2235,1;0;0,1,377.1957,0.0,-927.0,-508.0,1,0
257,377.9453,-78729.3943,-78351.4490,78729.9112,378.4622,0.3001,378.7623,0.3668,275,0.0167,-275,0.2088,0;0.5;0,0,378.3796,0.0,-925.0,-509.0,1,1
258,379.1291,-78730.5781,-78351.4490,78730.7115,379.2625,0.3001,379.5627,0.3668,275,0.0088,-275,0.0323,0;0.5;0,0,379.1798,0.0,-922.0,-512.0,1,1
259,379.9295,-78731.3785,-78351.4490,78732.1121,380.6631,0.3001,380.9632,0.3668,-275,0.0088,275,0.0759,0;0.5;0,1,380.5719,1.0,962.0,-518.0,1,1
260,381.3300,-78732.7790,-78351.4490,78733.9128,382.4638,0.3001,382.7639,0.3668,-275,0.45,275,0.5171,0;0.5;0,1,382.3811,1.0,965.0,-512.0,1,1
261,383.1308,-78734.5797,-78351.4490,78734.9466,383.4976,0.3001,383.7977,0.3668,-275,0.0167,275,0.0838,1;0;0,1,383.4064,0.0,-932.0,-517.0,1,0
262,384.1645,-78735.6135,-78351.4490,78736.1137,384.6647,0.3001,384.9648,0.3668,275,0.0088,-275,0.017,1;0;0,0,384.5737,1.0,968.0,-510.0,1,0
263,385.3317,-78736.7806,-78351.4490,78737.5810,386.1320,0.3001,386.4321,0.3668,275,0.0167,-275,0.0838,0;0.5;0,0,386.0493,0.0,-936.0,-549.0,1,1
264,386.7989,-78738.2479,-78351.4490,78738.5480,387.0990,0.3001,387.3992,0.3668,275,0.45,-275,0.4582,1;0;0,0,387.0079,1.0,972.0,-496.0,1,0
265,387.7660,-78739.2150,-78351.4490,78739.6318,388.1828,0.3001,388.4829,0.3668,-275,0.0167,275,0.0402,0;0.5;0,1,388.0918,1.0,965.0,-496.0,1,1
266,388.8497,-78740.2987,-78351.4490,78740.3821,388.9331,0.3001,389.2332,0.3668,275,0.0088,-275,0.017,0;0.5;0,0,388.8504,0.0,-942.0,-542.0,1,1
267,389.6001,-78741.0490,-78351.4490,78741.1491,389.7001,0.3001,390.0002,0.3668,275,0.2,-275,0.3921,0;0.5;0,0,389.6174,0.0,-959.0,-532.0,1,1
268,390.3670,-78741.8160,-78351.4490,78742.1995,390.7505,0.3001,391.0506,0.3668,-275,0.0167,275,0.0838,0;0.5;0,1,390.6676,1.0,968.0,-496.0,1,1
269,391.4175,-78742.8664,-78351.4490,78743.7668,392.3178,0.3001,392.6179,0.0000,275,0.05,-275,0.0582,1;0;0,0,392.2269,1.0,968.0,-500.0,1,0
270,392.6179,-78744.0669,-78351.4490,78744.4838,393.0348,0.3001,393.3349,0.3668,275,0.45,-275,0.6421,1;0;0,0,392.9520,1.0,965.0,-496.0,1,0
271,393.7017,-78745.1507,-78351.4490,78745.2507,393.8018,0.3001,394.1019,0.3668,-275,0.45,275,0.4735,0;0.5;0,1,393.7190,1.0,965.0,-504.0,1,1
272,394.4687,-78745.9177,-78351.4490,78746.1011,394.6521,0.3001,394.9522,0.3668,-275,0.45,275,0.6421,0;0.5;0,1,394.5611,1.0,971.0,-494.0,1,1
273,395.3190,-78746.7680,-78351.4490,78747.2516,395.8026,0.3001,396.1027,0.3668,-275,0.45,275,0.5171,0;0.5;0,1,395.7197,1.0,965.0,-501.0,1,1
274,396.4695,-78747.9185,-78351.4490,78748.5021,397.0531,0.3001,397.3532,0.3668,275,0.0167,-275,0.2088,0;0.5;0,0,396.9704,0.0,-943.0,-540.0,1,1
275,397.7200,-78749.1690,-78351.4490,78749.5525,398.1035,0.3001,398.4036,0.3668,-275,0.45,275,0.4582,0;0.5;0,1,398.0125,1.0,960.0,-508.0,1,1
276,398.7704,-78750.2194,-78351.4490,78750.9697,399.5207,0.3001,399.8209,0.3668,275,0.0088,-275,0.0323,0;0.5;0,0,399.4380,0.0,-939.0,-534.0,1,1
277,400.1877,-78751.6367,-78351.4490,78752.1535,400.7046,0.3001,401.0047,0.3668,-275,0.2,275,0.3921,0;0.5;0,1,400.6218,1.0,964.0,-509.0,1,1
278,401.3715,-78752.8205,-78351.4490,78753.3207,401.8717,0.3001,402.1718,0.3668,-275,0.0088,275,0.2009,0;0.5;0,1,401.7805,1.0,962.0,-516.0,1,1
279,402.5386,-78753.9876,-78351.4490,78754.4711,403.0222,0.3001,403.3223,0.3668,-275,0.05,275,0.0582,0;0.5;0,1,402.9311,1.0,965.0,-500.0,1,1
280,403.6891,-78755.1381,-78351.4490,78755.7050,404.2560,0.3001,404.5561,0.3668,275,0,-275,0.1921,0;0.5;0,0,404.1650,0.0,-944.0,-527.0,1,1
281,404.9229,-78756.3719,-78351.4490,78756.6720,405.2231,0.3001,405.5232,0.3668,275,0,-275,0.0029,1;0;0,0,405.1403,1.0,963.0,-516.0,1,0
282,405.8900,-78757.3390,-78351.4490,78757.4223,405.9734,0.3001,406.2735,0.3668,275,0,-275,0.0235,1;0;0,0,405.8907,1.0,963.0,-506.0,1,0
283,406.6403,-78758.0893,-78351.4490,78758.3227,406.8737,0.3001,407.1738,0.3668,-275,0.2,275,0.3921,1;0;0,1,406.7827,0.0,-939.0,-532.0,1,0
284,407.5407,-78758.9896,-78351.4490,78759.7066,408.2576,0.3001,408.5577,0.3668,-275,0.05,275,0.6,0;0.5;0,1,408.1750,1.0,965.0,-511.0,1,1
285,408.9246,-78760.3735,-78351.4490,78760.7237,409.2747,0.3001,409.5748,0.3668,-275,0,275,0.1921,0;0.5;0,1,409.1837,1.0,966.0,-498.0,1,1
286,409.9416,-78761.3906,-78351.4490,78762.0075,410.5585,0.3001,410.8587,0.3668,-275,0.0088,275,0.017,0;0.5;0,1,410.4675,1.0,963.0,-503.0,1,1
287,411.2255,-78762.6745,-78351.4490,78762.8079,411.3589,0.3001,411.6590,0.3668,-275,0,275,0.0029,1;0;0,1,411.2678,0.0,-942.0,-523.0,1,0
288,412.0258,-78763.4748,-78351.4490,78764.2918,412.8428,0.3001,413.1429,0.3668,275,0.45,-275,0.5171,1;0;0,0,412.7517,1.0,962.0,-504.0,1,0
289,413.5097,-78764.9587,-78351.4490,78765.1755,413.7265,0.3001,414.0266,0.3668,275,0.05,-275,0.0582,1;0;0,0,413.6437,1.0,964.0,-500.0,1,0
290,414.3934,-78765.8424,-78351.4490,78766.6928,415.2438,0.3001,415.5439,0.3668,-275,0.0088,275,0.2009,0;0.5;0,1,415.1529,1.0,965.0,-507.0,1,1
291,415.9107,-78767.3597,-78351.4490,78767.8266,416.3776,0.3001,416.6777,0.3668,275,0.2,-275,0.2235,1;0;0,0,416.2865,1.0,970.0,-500.0,1,0
292,417.0445,-78768.4935,-78351.4490,78769.1438,417.6948,0.3001,417.9949,0.3668,275,0.45,-275,0.5171,0;0.5;0,0,417.6039,0.0,-941.0,-521.0,1,1
293,418.3617,-78769.8107,-78351.4490,78770.4109,418.9620,0.3001,419.2621,0.3668,-275,0.45,275,1,0;0.5;0,1,418.8793,1.0,966.0,-508.0,1,1
294,419.6289,-78771.0779,-78351.4490,78771.9949,420.5459,0.3001,420.8461,0.3668,-275,0.45,275,0.4582,0;0.5;0,1,420.4632,1.0,966.0,-508.0,1,1
295,421.2129,-78772.6619,-78351.4490,78773.3621,421.9132,0.3001,422.2133,0.3668,-275,0.2,275,0.2671,1;0;0,1,421.8220,0.0,-944.0,-517.0,1,0
296,422.5801,-78774.0291,-78351.4490,78774.4959,423.0469,0.3001,423.3471,0.3668,-275,0.0088,275,0.017,0;0.5;0,1,422.9642,1.0,967.0,-504.0,1,1
297,423.7139,-78775.1629,-78351.4490,78775.8965,424.4475,0.3001,424.7476,0.3668,-275,0.0167,275,0.0838,0;0.5;0,1,424.3648,1.0,961.0,-335.0,1,1
298,425.1144,-78776.5634,-78351.4490,78776.7135,425.2645,0.3001,425.5646,0.0000,275,0.2,-275,0.75,0;0.5;0,0,425.1735,0.0,-913.0,-372.0,1,1
299,425.5646,-78777.0136,-78351.4490,78777.4305,425.9815,0.3001,426.2816,0.0000,-275,0.0167,275,0.0249,0;0.5;0,1,425.8903,1.0,945.0,-421.0,1,1
300,426.2816,-78777.7306,-78351.4490,78778.1474,426.6984,0.3001,426.9985,0.3668,275,0.0167,-275,0.0196,0;0.5;0,0,426.6074,0.0,-896.0,-394.0,1,1
301,427.3654,-78778.8143,-78351.4490,78779.3479,427.8989,0.3001,428.1990,0.3668,-275,0.05,275,0.1171,1;0;0,1,427.8162,0.0,-889.0,-405.0,1,0
302,428.5658,-78780.0148,-78351.4490,78780.2316,428.7826,0.3001,429.0827,0.3668,-275,0.05,275,0.0582,1;0;0,1,428.6998,0.0,-898.0,-409.0,1,0
303,429.4495,-78780.8985,-78351.4490,78784.0831,432.6342,0.3001,432.9343,0.3668,275,0.0088,-275,0.0098,1;0;0,0,432.5431,1.0,937.0,-433.0,1,0
304,433.3011,-78784.7501,-78351.4490,78785.3503,433.9013,0.3001,434.2015,0.3668,-275,0,275,0.0082,1;0;0,1,433.8103,0.0,-879.0,-419.0,1,0
305,434.5683,-78786.0173,-78351.4490,78786.7676,435.3186,0.3001,435.6187,0.3668,275,0.05,-275,0.0529,0;0.5;0,0,435.2359,0.0,-863.0,-415.0,1,1
306,435.9855,-78787.4345,-78351.4490,78787.7180,436.2690,0.3001,436.5691,0.3668,-275,0.2,275,0.2082,0;0.5;0,1,436.1862,1.0,930.0,-427.0,1,1
307,436.9359,-78788.3849,-78351.4490,78788.6016,437.1527,0.3001,437.4528,0.3668,275,0.45,-275,1,1;0;0,0,437.0700,1.0,927.0,-430.0,1,0
308,437.8196,-78789.2686,-78351.4490,78789.5187,438.0697,0.3001,438.3698,0.3668,275,0,-275,0.0082,0;0.5;0,0,437.9869,0.0,-875.0,-404.0,1,1
309,438.7366,-78790.1856,-78351.4490,78790.4357,438.9867,0.3001,439.2869,0.3668,275,0.0088,-275,0.2009,0;0.5;0,0,438.9039,0.0,-878.0,-398.0,1,1
310,439.6537,-78791.1027,-78351.4490,78791.2861,439.8371,0.3001,440.1372,0.3668,275,0.2,-275,0.2671,0;0.5;0,0,439.7460,0.0,-883.0,-393.0,1,1
311,440.5040,-78791.9530,-78351.4490,78792.0364,440.5874,0.3001,440.8875,0.3668,275,0.2,-275,0.75,0;0.5;0,0,440.5046,0.0,-894.0,-383.0,1,1
312,441.2543,-78792.7033,-78351.4490,78792.8033,441.3544,0.3001,441.6545,0.3668,-275,0,275,0.1921,1;0;0,1,441.2634,0.0,-884.0,-392.0,1,0
313,442.0213,-78793.4703,-78351.4490,78793.8204,442.3714,0.3001,442.6716,0.3668,-275,0.45,275,0.6421,0;0.5;0,1,442.2805,1.0,929.0,-428.0,1,1
314,443.0384,-78794.4874,-78351.4490,78794.6041,443.1551,0.3001,443.4552,0.3668,275,0.0088,-275,0.0117,1;0;0,0,443.0639,1.0,931.0,-431.0,1,0
315,443.8220,-78795.2710,-78351.4490,78795.7045,444.2555,0.3001,444.5557,0.3668,275,0.05,-275,0.1171,0;0.5;0,0,444.1728,0.0,-890.0,-389.0,1,1
316,444.9225,-78796.3715,-78351.4490,78796.7883,445.3393,0.3001,445.6394,0.3668,-275,0.2,275,0.2671,1;0;0,1,445.2566,0.0,-882.0,-397.0,1,0
317,446.0062,-78797.4552,-78351.4490,78797.7053,446.2563,0.3001,446.5565,0.3668,275,0.0088,-275,0.0117,1;0;0,0,446.1735,1.0,937.0,-421.0,1,0
318,446.9233,-78798.3723,-78351.4490,78799.2059,447.7570,0.3001,448.0571,0.3668,-275,0.0088,275,0.2009,0;0.5;0,1,447.6742,1.0,934.0,-424.0,1,1
319,448.4239,-78799.8729,-78351.4490,78800.1897,448.7407,0.3001,449.0408,0.3668,275,0.0167,-275,0.0402,1;0;0,0,448.6496,1.0,937.0,-416.0,1,0
320,449.4076,-78800.8566,-78351.4490,78801.0400,449.5910,0.3001,449.8912,0.3668,-275,0.2,275,0.2671,0;0.5;0,1,449.5082,1.0,937.0,-416.0,1,1
321,450.2580,-78801.7070,-78351.4490,78801.9237,450.4747,0.3001,450.7748,0.3668,275,0.2,-275,0.75,1;0;0,0,450.3837,1.0,939.0,-416.0,1,0
322,451.1417,-78802.5906,-78351.4490,78802.7907,451.3417,0.3001,451.6419,0.3668,275,0,-275,0.0235,0;0.5;0,0,451.2590,0.0,-885.0,-389.0,1,1
323,452.0087,-78803.4577,-78351.4490,78805.2917,453.8428,0.3001,454.1429,0.3668,-275,0.0088,275,0.017,0;0.5;0,1,453.7517,1.0,943.0,-416.0,1,1
324,454.5097,-78805.9587,-78351.4490,78806.0921,454.6431,0.3001,454.9432,0.0000,275,0.0167,-275,0.0177,0;0.5;0,0,454.5602,0.0,-888.0,-391.0,1,1
325,454.9432,-78806.3922,-78351.4490,78806.8090,455.3600,0.3001,455.6602,0.3668,-275,0.0088,275,0.2009,1;0;0,1,455.2772,0.0,-891.0,-388.0,1,0
326,456.0270,-78807.4760,-78351.4490,78808.0262,456.5772,0.3001,456.8773,0.3668,275,0.0088,-275,0.0098,0;0.5;0,0,456.4944,0.0,-884.0,-393.0,1,1
327,457.2441,-78808.6931,-78351.4490,78809.5601,458.1112,0.3001,458.4113,0.3668,275,0.45,-275,0.4582,1;0;0,0,458.0201,1.0,938.0,-411.0,1,0
328,458.7781,-78810.2271,-78351.4490,78810.9274,459.4784,0.3001,459.7785,0.3668,-275,0.0167,275,0.0402,1;0;0,1,459.3958,0.0,-876.0,-398.0,1,0
329,460.1453,-78811.5943,-78351.4490,78811.7444,460.2954,0.3001,460.5955,0.3668,-275,0.2,275,1,1;0;0,1,460.2044,0.0,-884.0,-396.0,1,0
330,460.9623,-78812.4113,-78351.4490,78813.0282,461.5792,0.3001,461.8793,0.3668,275,0.0088,-275,0.017,1;0;0,0,461.4881,1.0,932.0,-411.0,1,0
331,462.2462,-78813.6951,-78351.4490,78814.4621,463.0131,0.3001,463.3133,0.3668,-275,0.2,275,0.2235,0;0.5;0,1,462.9220,1.0,932.0,-416.0,1,1
332,463.6801,-78815.1291,-78351.4490,78815.3625,463.9135,0.3001,464.2136,0.3668,-275,0,275,0.1921,0;0.5;0,1,463.8224,1.0,930.0,-416.0,1,1
333,464.5804,-78816.0294,-78351.4490,78816.8297,465.3808,0.3001,465.6809,0.3668,-275,0.05,275,0.1171,0;0.5;0,1,465.2898,1.0,937.0,-412.0,1,1
334,466.0477,-78817.4967,-78351.4490,78817.6467,466.1978,0.3001,466.4979,0.3668,275,0.0167,-275,0.0196,1;0;0,0,466.1150,1.0,936.0,-404.0,1,0
335,466.8647,-78818.3137,-78351.4490,78818.9306,467.4816,0.3001,467.7817,0.3668,275,0.2,-275,0.2235,0;0.5;0,0,467.3906,0.0,-885.0,-391.0,1,1
336,468.1486,-78819.5975,-78351.4490,78819.9977,468.5487,0.3001,468.8488,0.3668,275,0.45,-275,0.4582,1;0;0,0,468.4577,1.0,927.0,-406.0,1,0
337,469.2156,-78820.6646,-78351.4490,78821.4816,470.0326,0.3001,470.3328,0.3668,-275,0.05,275,0.6,0;0.5;0,1,469.9415,1.0,930.0,-409.0,1,1
338,470.6996,-78822.1486,-78351.4490,78822.8155,471.3665,0.3001,471.6666,0.3668,275,0,-275,0.001,1;0;0,0,471.2755,1.0,929.0,-411.0,1,0
339,472.0335,-78823.4824,-78351.4490,78823.5992,472.1502,0.3001,472.4503,0.3668,275,0.05,-275,0.6,1;0;0,0,472.0591,1.0,927.0,-411.0,1,0
340,472.8171,-78824.2661,-78351.4490,78824.7663,473.3173,0.3001,473.6174,0.3668,275,0.45,-275,0.5171,0;0.5;0,0,473.2346,0.0,-898.0,-386.0,1,1
341,473.9842,-78825.4332,-78351.4490,78825.8834,474.4344,0.3001,474.7346,0.3668,-275,0.0088,275,0.0098,1;0;0,1,474.3433,0.0,-898.0,-375.0,1,0
342,475.1014,-78826.5504,-78351.4490,78827.0339,475.5849,0.3001,475.8850,0.3668,-275,0.05,275,0.2421,1;0;0,1,475.5022,0.0,-893.0,-378.0,1,0
343,476.2518,-78827.7008,-78351.4490,78827.9342,476.4853,0.3001,476.7854,0.3668,-275,0,275,0.1921,1;0;0,1,476.4024,0.0,-931.0,-357.0,1,0
344,477.1522,-78828.6012,-78351.4490,78828.7012,477.2522,0.3001,477.5524,0.3668,-275,0,275,0.0671,1;0;0,1,477.1694,0.0,-944.0,-359.0,1,0
345,477.9192,-78829.3682,-78351.4490,78829.8017,478.3527,0.3001,478.6528,0.3668,-275,0.0167,275,0.0838,0;0.5;0,1,478.2701,1.0,932.0,-404.0,1,1
346,479.0196,-78830.4686,-78351.4490,78831.1522,479.7032,0.3001,480.0034,0.3668,275,0.2,-275,0.2671,0;0.5;0,0,479.6122,0.0,-911.0,-369.0,1,1
347,480.3702,-78831.8192,-78351.4490,78831.9859,480.5369,0.3001,480.8370,0.3668,275,0.0167,-275,0.2088,1;0;0,0,480.4540,1.0,889.0,-390.0,1,0
348,481.2038,-78832.6528,-78351.4490,78832.8863,481.4373,0.3001,481.7374,0.0000,275,0.0167,-275,0.2088,0;0.5;0,0,481.3461,0.0,-913.0,-373.0,1,1
349,481.7374,-78833.1864,-78351.4490,78833.6032,482.1542,0.3001,482.4543,0.3668,-275,0.2,275,0.2082,1;0;0,1,482.0632,0.0,-927.0,-375.0,1,0
350,482.8212,-78834.2701,-78351.4490,78834.8704,483.4214,0.3001,483.7215,0.3668,275,0,-275,0.0082,1;0;0,0,483.3387,1.0,878.0,-407.0,1,0
351,484.0883,-78835.5373,-78351.4490,78836.3543,484.9053,0.3001,485.2055,0.3668,-275,0.05,275,0.0529,1;0;0,1,484.8224,0.0,-912.0,-385.0,1,0
352,485.5723,-78837.0213,-78351.4490,78837.1213,485.6723,0.3001,485.9724,0.3668,-275,0.0167,275,0.0196,1;0;0,1,485.5897,0.0,-903.0,-393.0,1,0
353,486.3393,-78837.7882,-78351.4490,78838.0550,486.6060,0.3001,486.9061,0.3668,275,0,-275,0.001,1;0;0,0,486.5233,1.0,855.0,-391.0,1,0
354,487.2730,-78838.7219,-78351.4490,78839.1054,487.6565,0.3001,487.9566,0.3668,275,0,-275,0.0029,1;0;0,0,487.5737,1.0,835.0,-394.0,1,0
355,488.3234,-78839.7724,-78351.4490,78840.2059,488.7569,0.3001,489.0570,0.3668,-275,0.0088,275,0.0323,0;0.5;0,1,488.6657,1.0,821.0,-407.0,1,1
356,489.4238,-78840.8728,-78351.4490,78840.9895,489.5405,0.3001,489.8407,0.3668,-275,0.05,275,0.0735,0;0.5;0,1,489.4579,1.0,823.0,-423.0,1,1
357,490.2075,-78841.6565,-78351.4490,78842.2901,490.8411,0.3001,491.1412,0.3668,-275,0.0167,275,0.2088,0;0.5;0,1,490.7503,1.0,834.0,-422.0,1,1
358,491.5080,-78842.9570,-78351.4490,78843.1237,491.6747,0.3001,491.9749,0.3668,-275,0,275,0.001,0;0.5;0,1,491.5919,1.0,832.0,-383.0,1,1
359,492.3417,-78843.7907,-78351.4490,78843.9907,492.5418,0.3001,492.8419,0.3668,-275,0.05,275,0.1171,0;0.5;0,1,492.4590,1.0,846.0,-379.0,1,1
360,493.2087,-78844.6577,-78351.4490,78845.4914,494.0424,0.3001,494.3425,0.3668,-275,0.05,275,0.6,0;0.5;0,1,493.9598,1.0,844.0,-382.0,1,1
361,494.7093,-78846.1583,-78351.4490,78846.7752,495.3262,0.3001,495.6263,0.3668,275,0.05,-275,0.1171,0;0.5;0,0,495.2351,0.0,-926.0,-380.0,1,1
362,495.9932,-78847.4421,-78351.4490,78847.5422,496.0932,0.3001,496.3933,0.3668,-275,0.0088,275,0.017,1;0;0,1,496.0020,0.0,-928.0,-385.0,1,0
363,496.7601,-78848.2091,-78351.4490,78848.6260,497.1770,0.3001,497.4771,0.3668,275,0.2,-275,0.2082,0;0.5;0,0,497.0859,0.0,-943.0,-382.0,1,1
364,497.8439,-78849.2929,-78351.4490,78849.8098,498.3608,0.3001,498.6609,0.3668,-275,0.0088,275,0.0117,1;0;0,1,498.2697,0.0,-935.0,-388.0,1,0
365,499.0277,-78850.4767,-78351.4490,78850.8435,499.3945,0.3001,499.6947,0.3668,275,0.05,-275,0.2421,1;0;0,0,499.3117,1.0,835.0,-397.0,1,0
366,500.0615,-78851.5105,-78351.4490,78851.6272,500.1782,0.3001,500.4783,0.3668,275,0.05,-275,0.1171,0;0.5;0,0,500.0872,0.0,-913.0,-387.0,1,1
367,500.8451,-78852.2941,-78351.4490,78852.6443,501.1953,0.3001,501.4954,0.3668,-275,0.05,275,0.2421,1;0;0,1,501.1125,0.0,-933.0,-379.0,1,0
368,501.8622,-78853.3112,-78351.4490,78853.4779,502.0289,0.3001,502.3291,0.3668,-275,0,275,0.0235,1;0;0,1,501.9462,0.0,-927.0,-391.0,1,0
369,502.6959,-78854.1449,-78351.4490,78854.3616,502.9126,0.3001,503.2127,0.3668,275,0.0167,-275,0.0249,1;0;0,0,502.8300,1.0,846.0,-373.0,1,0
370,503.5796,-78855.0285,-78351.4490,78855.2787,503.8297,0.3001,504.1298,0.3668,-275,0.0088,275,0.0117,1;0;0,1,503.7386,0.0,-925.0,-386.0,1,0
371,504.4966,-78855.9456,-78351.4490,78856.7292,505.2803,0.3001,505.5804,0.3668,275,0.45,-275,0.4735,1;0;0,0,505.1892,1.0,845.0,-377.0,1,0
372,505.9472,-78857.3962,-78351.4490,78857.9631,506.5141,0.3001,506.8142,0.3668,-275,0,275,0.0082,0;0.5;0,1,506.4231,1.0,832.0,-401.0,1,1
373,507.1810,-78858.6300,-78351.4490,78859.2803,507.8313,0.3001,508.1314,0.3668,275,0.0088,-275,0.2009,0;0.5;0,0,507.7403,0.0,-927.0,-382.0,1,1
374,508.4982,-78859.9472,-78351.4490,78860.0639,508.6149,0.3001,508.9151,0.3668,-275,0.45,275,0.4735,0;0.5;0,1,508.5321,1.0,832.0,-385.0,1,1
375,509.2819,-78860.7309,-78351.4490,78860.9643,509.5153,0.3001,509.8154,0.3668,-275,0.45,275,0.4582,0;0.5;0,1,509.4243,1.0,824.0,-393.0,1,1
376,510.1822,-78861.6312,-78351.4490,78861.7479,510.2990,0.3001,510.5991,0.3668,-275,0.45,275,1,1;0;0,1,510.2079,0.0,-936.0,-373.0,1,0
377,510.9659,-78862.4149,-78351.4490,78862.6316,511.1826,0.3001,511.4828,0.3668,275,0.0167,-275,0.0177,1;0;0,0,511.0999,1.0,826.0,-393.0,1,0
378,511.8496,-78863.2986,-78351.4490,78863.9655,512.5165,0.3001,512.8166,0.3668,-275,0.0088,275,0.2009,0;0.5;0,1,512.4337,1.0,835.0,-397.0,1,1
379,513.1835,-78864.6324,-78351.4490,78865.3827,513.9338,0.3001,514.2339,0.3668,-275,0,275,0.0029,0;0.5;0,1,513.8509,1.0,826.0,-396.0,1,1
380,514.6007,-78866.0497,-78351.4490,78866.4832,515.0342,0.3001,515.3343,0.3668,-275,0,275,0.0671,1;0;0,1,514.9516,0.0,-931.0,-380.0,1,0
381,515.7011,-78867.1501,-78351.4490,78867.9004,516.4514,0.3001,516.7516,0.3668,-275,0.0088,275,0.017,0;0.5;0,1,516.3686,1.0,832.0,-390.0,1,1
382,517.1184,-78868.5674,-78351.4490,78868.9842,517.5352,0.3001,517.8353,0.3668,-275,0.0167,275,0.0177,0;0.5;0,1,517.4526,1.0,829.0,-390.0,1,1
383,518.2022,-78869.6511,-78351.4490,78870.3848,518.9358,0.3001,519.2359,0.3668,275,0.45,-275,0.4735,0;0.5;0,0,518.8447,0.0,-931.0,-379.0,1,1
384,519.6027,-78871.0517,-78351.4490,78871.9854,520.5364,0.3001,520.8365,0.3668,275,0.45,-275,1,0;0.5;0,0,520.4537,0.0,-931.0,-378.0,1,1
385,521.2034,-78872.6523,-78351.4490,78873.1859,521.7369,0.3001,522.0370,0.3668,275,0.05,-275,0.2421,0;0.5;0,0,521.6540,0.0,-935.0,-380.0,1,1
386,522.4039,-78873.8528,-78351.4490,78874.3030,522.8540,0.3001,523.1542,0.3668,-275,0.0167,275,0.0249,0;0.5;0,1,522.7714,1.0,841.0,-389.0,1,1
387,523.5210,-78874.9700,-78351.4490,78875.4368,523.9878,0.3001,524.2879,0.3668,275,0.0167,-275,0.0838,1;0;0,0,523.9051,1.0,845.0,-390.0,1,0
388,524.6548,-78876.1037,-78351.4490,78876.6540,525.2050,0.3001,525.5051,0.3668,-275,0.2,275,0.3921,0;0.5;0,1,525.1223,1.0,852.0,-395.0,1,1
389,525.8719,-78877.3209,-78351.4490,78877.9712,526.5222,0.3001,526.8223,0.3668,-275,0.05,275,0.0529,0;0.5;0,1,526.4396,1.0,889.0,-380.0,1,1
390,527.1891,-78878.6381,-78351.4490,78878.7548,527.3058,0.3001,527.6060,0.3668,-275,0.0167,275,0.0196,1;0;0,1,527.2148,0.0,-951.0,-364.0,1,0
391,527.9728,-78879.4218,-78351.4490,78880.0887,528.6397,0.3001,528.9398,0.3668,275,0.05,-275,0.6,0;0.5;0,0,528.5487,0.0,-942.0,-375.0,1,1
392,529.3066,-78880.7556,-78351.4490,78881.3392,529.8902,0.3001,530.1903,0.3668,275,0.0167,-275,0.0196,1;0;0,0,529.7993,1.0,854.0,-375.0,1,0
393,530.5572,-78882.0061,-78351.4490,78882.4897,531.0407,0.3001,531.3408,0.3668,275,0,-275,0.1921,0;0.5;0,0,530.9497,0.0,-936.0,-371.0,1,1
394,531.7076,-78883.1566,-78351.4490,78883.6401,532.1911,0.3001,532.4913,0.3668,275,0,-275,0.0082,0;0.5;0,0,532.1084,0.0,-938.0,-373.0,1,1
395,532.8581,-78884.3071,-78351.4490,78885.1407,533.6918,0.3001,533.9919,0.3668,-275,0.2,275,0.2082,0;0.5;0,1,533.6091,1.0,874.0,-376.0,1,1
396,534.3587,-78885.8077,-78351.4490,78886.3245,534.8756,0.3001,535.1757,0.3668,-275,0.45,275,0.5171,0;0.5;0,1,534.7928,1.0,875.0,-363.0,1,1
397,535.5425,-78886.9915,-78351.4490,78887.1415,535.6926,0.3001,535.9927,0.3668,275,0.0088,-275,0.0323,1;0;0,0,535.6015,1.0,874.0,-354.0,1,0
398,536.3595,-78887.8085,-78351.4490,78888.3087,536.8597,0.3001,537.1598,0.3668,275,0.0167,-275,0.0196,0;0.5;0,0,536.7688,0.0,-881.0,-389.0,1,1
399,537.5266,-78888.9756,-78351.4490,78889.5592,538.1102,0.3001,538.4103,0.3668,275,0,-275,0.1921,1;0;0,0,538.0274,1.0,869.0,-350.0,1,0
400,538.7771,-78890.2261,-78351.4490,78890.5429,539.0939,0.3001,539.3941,0.3668,-275,0,275,0.0029,1;0;0,1,539.0111,0.0,-872.0,-394.0,1,0
401,539.7609,-78891.2099,-78351.4490,78891.5933,540.1444,0.3001,540.4445,0.3668,-275,0,275,0.001,1;0;0,1,540.0615,0.0,-891.0,-374.0,1,0
402,540.8113,-78892.2603,-78351.4490,78892.8939,541.4449,0.3001,541.7450,0.3668,-275,0.2,275,1,0;0.5;0,1,541.3540,1.0,875.0,-338.0,1,1
403,542.1118,-78893.5608,-78351.4490,78894.1110,542.6620,0.3001,542.9622,0.3668,-275,0.2,275,0.2671,0;0.5;0,1,542.5793,1.0,868.0,-343.0,1,1
404,543.3290,-78894.7780,-78351.4490,78895.1781,543.7291,0.3001,544.0293,0.3668,275,0.0167,-275,0.0402,1;0;0,0,543.6465,1.0,866.0,-345.0,1,0
405,544.3961,-78895.8451,-78351.4490,78896.5787,545.1297,0.3001,545.4298,0.3668,275,0.05,-275,0.6,0;0.5;0,0,545.0386,0.0,-876.0,-412.0,1,1
406,545.7967,-78897.2456,-78351.4490,78897.4124,545.9634,0.3001,546.2635,0.3668,-275,0.0088,275,0.0323,0;0.5;0,1,545.8806,1.0,865.0,-354.0,1,1
407,546.6303,-78898.0793,-78351.4490,78898.6795,547.2306,0.3001,547.5307,0.3668,275,0.0088,-275,0.0323,0;0.5;0,0,547.1478,0.0,-877.0,-386.0,1,1
408,547.8975,-78899.3465,-78351.4490,78899.4465,547.9975,0.3001,548.2977,0.3668,-275,0.2,275,0.75,1;0;0,1,547.9148,0.0,-898.0,-365.0,1,0
409,548.6645,-78900.1135,-78351.4490,78900.6470,549.1980,0.3001,549.4981,0.3668,-275,0.0088,275,0.0323,0;0.5;0,1,549.1071,1.0,877.0,-343.0,1,1
410,549.8650,-78901.3139,-78351.4490,78902.0309,550.5819,0.3001,550.8820,0.0000,-275,0.0167,275,0.2088,0;0.5;0,1,550.4993,1.0,865.0,-370.0,1,1
411,550.8820,-78902.3310,-78351.4490,78902.7479,551.2989,0.3001,551.5990,0.3668,275,0.0088,-275,0.0759,1;0;0,0,551.2161,1.0,876.0,-360.0,1,0
412,551.9658,-78903.4148,-78351.4490,78903.5649,552.1159,0.3001,552.4160,0.3668,-275,0,275,0.0671,1;0;0,1,552.0332,0.0,-881.0,-374.0,1,0
413,552.7828,-78904.2318,-78351.4490,78904.7653,553.3164,0.3001,553.6165,0.3668,275,0.0088,-275,0.0759,1;0;0,0,553.2253,1.0,872.0,-359.0,1,0
414,553.9833,-78905.4323,-78351.4490,78905.6490,554.2001,0.3001,554.5002,0.3668,-275,0.05,275,0.1171,1;0;0,1,554.1088,0.0,-877.0,-390.0,1,0
415,554.8670,-78906.3160,-78351.4490,78906.7828,555.3338,0.3001,555.6340,0.3668,275,0.0088,-275,0.2009,1;0;0,0,555.2427,1.0,876.0,-352.0,1,0
416,556.0008,-78907.4498,-78351.4490,78907.8166,556.3676,0.3001,556.6677,0.3668,-275,0.05,275,0.0582,1;0;0,1,556.2849,0.0,-883.0,-378.0,1,0
417,557.0345,-78908.4835,-78351.4490,78908.7336,557.2846,0.3001,557.5848,0.3668,275,0.45,-275,0.5171,0;0.5;0,0,557.1936,0.0,-883.0,-378.0,1,1
418,557.9516,-78909.4006,-78351.4490,78909.8174,558.3684,0.3001,558.6685,0.3668,275,0.05,-275,0.0529,1;0;0,0,558.2857,1.0,865.0,-371.0,1,0
419,559.0353,-78910.4843,-78351.4490,78910.7011,559.2521,0.3001,559.5522,0.3668,275,0.45,-275,1,0;0.5;0,0,559.1611,0.0,-899.0,-359.0,1,1
420,559.9190,-78911.3680,-78351.4490,78911.9349,560.4859,0.3001,560.7860,0.3668,-275,0.05,275,0.0529,1;0;0,1,560.3947,0.0,-894.0,-359.0,1,0
421,561.1529,-78912.6018,-78351.4490,78913.1187,561.6697,0.3001,561.9699,0.3668,-275,0.05,275,0.6,0;0.5;0,1,561.5871,1.0,872.0,-359.0,1,1
422,562.3367,-78913.7857,-78351.4490,78913.8857,562.4367,0.3001,562.7368,0.3668,-275,0.0167,275,0.2088,0;0.5;0,1,562.3457,1.0,867.0,-365.0,1,1
423,563.1037,-78914.5526,-78351.4490,78915.1195,563.6705,0.3001,563.9707,0.3668,-275,0.0167,275,0.0249,0;0.5;0,1,563.5878,1.0,869.0,-369.0,1,1
424,564.3375,-78915.7865,-78351.4490,78916.3200,564.8710,0.3001,565.1712,0.3668,275,0.05,-275,0.0529,1;0;0,0,564.7800,1.0,860.0,-365.0,1,0
425,565.5380,-78916.9870,-78351.4490,78917.6372,566.1882,0.3001,566.4884,0.3668,275,0.45,-275,1,1;0;0,0,566.0971,1.0,868.0,-351.0,1,0
426,566.8552,-78918.3042,-78351.4490,78918.6376,567.1886,0.3001,567.4888,0.3668,-275,0.0088,275,0.0098,1;0;0,1,567.0974,0.0,-884.0,-353.0,1,0
427,567.8556,-78919.3046,-78351.4490,78919.8548,568.4058,0.3001,568.7059,0.3668,275,0.2,-275,0.75,0;0.5;0,0,568.3231,0.0,-882.0,-377.0,1,1
428,569.0727,-78920.5217,-78351.4490,78920.8552,569.4062,0.3001,569.7063,0.3668,-275,0.0088,275,0.0117,1;0;0,1,569.3234,0.0,-887.0,-355.0,1,0
429,570.0731,-78921.5221,-78351.4490,78921.6889,570.2399,0.3001,570.5400,0.3668,275,0.2,-275,0.75,0;0.5;0,0,570.1487,0.0,-884.0,-352.0,1,1
430,570.9068,-78922.3558,-78351.4490,78922.7893,571.3403,0.3001,571.6404,0.3668,275,0.05,-275,0.0735,1;0;0,0,571.2574,1.0,868.0,-364.0,1,0
431,572.0073,-78923.4562,-78351.4490,78923.7063,572.2574,0.3001,572.5575,0.3668,275,0.45,-275,0.5171,0;0.5;0,0,572.1745,0.0,-900.0,-343.0,1,1
432,572.9243,-78924.3733,-78351.4490,78924.7067,573.2578,0.3001,573.5579,0.3668,-275,0.05,275,0.0735,1;0;0,1,573.1666,0.0,-894.0,-345.0,1,0
433,573.9247,-78925.3737,-78351.4490,78925.6071,574.1581,0.3001,574.4582,0.3668,275,0.2,-275,0.2235,1;0;0,0,574.0669,1.0,873.0,-354.0,1,0
434,574.8251,-78926.2740,-78351.4490,78926.6409,575.1919,0.3001,575.4920,0.3668,-275,0,275,0.001,1;0;0,1,575.1092,0.0,-894.0,-340.0,1,0
435,575.8588,-78927.3078,-78351.4490,78927.4579,576.0089,0.3001,576.3090,0.3668,275,0.0167,-275,0.0177,0;0.5;0,0,575.9178,0.0,-905.0,-335.0,1,1
436,576.6758,-78928.1248,-78351.4490,78928.6083,577.1593,0.3001,577.4595,0.3668,275,0.0167,-275,0.0196,0;0.5;0,0,577.0765,0.0,-919.0,-333.0,1,1
437,577.8263,-78929.2753,-78351.4490,78929.5587,578.1097,0.3001,578.4098,0.3668,-275,0.0167,275,0.0402,1;0;0,1,578.0186,0.0,-937.0,-309.0,1,0
438,578.7767,-78930.2256,-78351.4490,78930.6591,579.2102,0.3001,579.5103,0.3668,275,0.05,-275,0.2421,1;0;0,0,579.1190,1.0,866.0,-359.0,1,0
439,579.8771,-78931.3261,-78351.4490,78931.5929,580.1439,0.3001,580.4440,0.3668,275,0.0167,-275,0.0838,0;0.5;0,0,580.0527,0.0,-934.0,-293.0,1,1
440,580.8108,-78932.2598,-78351.4490,78932.3598,580.9109,0.3001,581.2110,0.3668,275,0.05,-275,0.0529,0;0.5;0,0,580.8280,0.0,-943.0,-290.0,1,1
441,581.5778,-78933.0268,-78351.4490,78933.3269,581.8779,0.3001,582.1780,0.0000,-275,0.0167,275,0.0196,0;0.5;0,1,581.7953,1.0,865.0,-357.0,1,1
442,582.1780,-78933.6270,-78351.4490,78934.0439,582.5949,0.3001,582.8950,0.3668,-275,0.2,275,0.3921,1;0;0,1,582.5039,0.0,-930.0,-303.0,1,0
443,583.2618,-78934.7108,-78351.4490,78934.9609,583.5119,0.3001,583.8120,0.3668,-275,0.05,275,0.0529,1;0;0,1,583.4209,0.0,-976.0,-269.0,1,0
444,584.1788,-78935.6278,-78351.4490,78935.8446,584.3956,0.3001,584.6957,0.0000,275,0.05,-275,0.0735,0;0.5;0,0,584.3045,0.0,-975.0,-277.0,1,1
445,584.6957,-78936.1447,-78351.4490,78936.5615,585.1126,0.3001,585.4127,0.3668,275,0.2,-275,0.2671,0;0.5;0,0,585.0214,0.0,-953.0,-287.0,1,1
446,585.7795,-78937.2285,-78351.4490,78937.4452,585.9962,0.3001,586.2964,0.3668,-275,0.05,275,0.0529,1;0;0,1,585.9135,0.0,-947.0,-281.0,1,0
447,586.6632,-78938.1122,-78351.4490,78938.7791,587.3301,0.3001,587.6302,0.3668,-275,0.2,275,0.2671,1;0;0,1,587.2473,0.0,-913.0,-301.0,1,0
448,587.9971,-78939.4460,-78351.4490,78939.5794,588.1304,0.3001,588.4306,0.3668,275,0.0088,-275,0.0323,0;0.5;0,0,588.0477,0.0,-906.0,-292.0,1,1
449,588.7974,-78940.2464,-78351.4490,78940.8133,589.3643,0.3001,589.6644,0.3668,-275,0.0088,275,0.0759,0;0.5;0,1,589.2815,1.0,896.0,-194.0,1,1
450,590.0312,-78941.4802,-78351.4490,78941.7136,590.2646,0.3001,590.5648,0.3668,275,0,-275,0.001,1;0;0,0,590.1818,1.0,759.0,-143.0,1,0
451,590.9316,-78942.3806,-78351.4490,78943.1142,591.6652,0.3001,591.9653,0.3668,275,0.2,-275,1,0;0.5;0,0,591.5742,0.0,-831.0,-196.0,1,1
452,592.3321,-78943.7811,-78351.4490,78943.8812,592.4322,0.3001,592.7323,0.3668,275,0,-275,0.0029,1;0;0,0,592.3494,1.0,778.0,-191.0,1,0
453,593.0991,-78944.5481,-78351.4490,78944.8816,593.4326,0.3001,593.7327,0.3668,275,0.0088,-275,0.0117,0;0.5;0,0,593.3415,0.0,-844.0,-195.0,1,1
454,594.0995,-78945.5485,-78351.4490,78946.0654,594.6164,0.3001,594.9165,0.3668,275,0.0088,-275,0.017,0;0.5;0,0,594.5336,0.0,-805.0,-209.0,1,1
455,595.2833,-78946.7323,-78351.4490,78947.1658,595.7168,0.3001,596.0170,0.3668,-275,0.0167,275,0.0177,1;0;0,1,595.6342,0.0,-792.0,-226.0,1,0
456,596.3838,-78947.8328,-78351.4490,78948.3496,596.9007,0.3001,597.2008,0.3668,-275,0.0088,275,0.0323,1;0;0,1,596.8178,0.0,-801.0,-251.0,1,0
457,597.5676,-78949.0166,-78351.4490,78949.5501,598.1011,0.3001,598.4013,0.3668,-275,0.0167,275,0.0402,1;0;0,1,598.0101,0.0,-838.0,-219.0,1,0
458,598.7681,-78950.2171,-78351.4490,78950.4838,599.0348,0.3001,599.3350,0.3668,275,0,-275,0.0082,0;0.5;0,0,598.9440,0.0,-867.0,-195.0,1,1
459,599.7018,-78951.1508,-78351.4490,78951.3842,599.9352,0.3001,600.2353,0.3668,-275,0.0167,275,0.0249,0;0.5;0,1,599.8443,1.0,905.0,-297.0,1,1
460,600.6021,-78952.0511,-78351.4490,78952.7347,601.2858,0.3001,601.5859,0.3668,-275,0.2,275,0.3921,0;0.5;0,1,601.2029,1.0,836.0,-264.0,1,1
461,601.9527,-78953.4017,-78351.4490,78953.9686,602.5196,0.3001,602.8197,0.3668,-275,0.0167,275,0.0196,0;0.5;0,1,602.4368,1.0,811.0,-255.0,1,1
462,603.1865,-78954.6355,-78351.4490,78955.2358,603.7868,0.3001,604.0869,0.3668,275,0.2,-275,0.75,0;0.5;0,0,603.7041,0.0,-856.0,-198.0,1,1
463,604.4537,-78955.9027,-78351.4490,78956.0194,604.5704,0.3001,604.8705,0.3668,-275,0.0088,275,0.0323,0;0.5;0,1,604.4877,1.0,831.0,-207.0,1,1
464,605.2374,-78956.6863,-78351.4490,78957.2366,605.7876,0.3001,606.0877,0.3668,275,0,-275,0.0235,1;0;0,0,605.6967,1.0,825.0,-208.0,1,0
465,606.4545,-78957.9035,-78351.4490,78958.4871,607.0381,0.3001,607.3382,0.3668,-275,0.2,275,0.2235,1;0;0,1,606.9470,0.0,-847.0,-214.0,1,0
466,607.7050,-78959.1540,-78351.4490,78959.6209,608.1719,0.3001,608.4720,0.3668,275,0.45,-275,0.4582,0;0.5;0,0,608.0895,0.0,-826.0,-239.0,1,1
467,608.8388,-78960.2878,-78351.4490,78960.8213,609.3724,0.3001,609.6725,0.3668,-275,0.45,275,1,0;0.5;0,1,609.2896,1.0,806.0,-219.0,1,1
468,610.0393,-78961.4883,-78351.4490,78961.7384,610.2894,0.3001,610.5895,0.3668,275,0.0167,-275,0.2088,1;0;0,0,610.1985,1.0,802.0,-219.0,1,0
469,610.9563,-78962.4053,-78351.4490,78962.7888,611.3398,0.3001,611.6399,0.3668,275,0.0167,-275,0.0249,1;0;0,0,611.2488,1.0,793.0,-216.0,1,0
470,612.0068,-78963.4557,-78351.4490,78963.6392,612.1902,0.3001,612.4903,0.3668,-275,0.0088,275,0.0323,0;0.5;0,1,612.1074,1.0,808.0,-215.0,1,1
471,612.8571,-78964.3061,-78351.4490,78964.9897,613.5407,0.3001,613.8408,0.3668,275,0.0167,-275,0.2088,0;0.5;0,0,613.4496,0.0,-886.0,-223.0,1,1
472,614.2076,-78965.6566,-78351.4490,78966.4236,614.9746,0.3001,615.2747,0.3668,275,0,-275,0.0671,0;0.5;0,0,614.8835,0.0,-875.0,-226.0,1,1
473,615.6416,-78967.0905,-78351.4490,78967.8075,616.3585,0.3001,616.6586,0.3668,-275,0.2,275,0.3921,0;0.5;0,1,616.2758,1.0,805.0,-244.0,1,1
474,617.0255,-78968.4744,-78351.4490,78968.7746,617.3256,0.3001,617.6257,0.3668,-275,0.0088,275,0.017,0;0.5;0,1,617.2428,1.0,769.0,-275.0,1,1
475,617.9925,-78969.4415,-78351.4490,78969.6249,618.1759,0.3001,618.4760,0.3668,-275,0.2,275,1,1;0;0,1,618.0933,0.0,-875.0,-242.0,1,0
476,618.8429,-78970.2918,-78351.4490,78970.6253,619.1763,0.3001,619.4764,0.3668,275,0.05,-275,0.0735,1;0;0,0,619.0935,1.0,788.0,-264.0,1,0
477,619.8433,-78971.2922,-78351.4490,78971.8425,620.3935,0.3001,620.6936,0.3668,-275,0.0167,275,0.0838,1;0;0,1,620.3024,0.0,-865.0,-250.0,1,0
478,621.0604,-78972.5094,-78351.4490,78972.9763,621.5273,0.3001,621.8274,0.3668,275,0.0167,-275,0.0402,1;0;0,0,621.4362,1.0,739.0,-296.0,1,0
479,622.1942,-78973.6432,-78351.4490,78974.2601,622.8111,0.3001,623.1112,0.3668,275,0.0088,-275,0.2009,0;0.5;0,0,622.7285,0.0,-861.0,-254.0,1,1
480,623.4781,-78974.9270,-78351.4490,78975.1271,623.6781,0.3001,623.9783,0.3668,275,0.0088,-275,0.0098,1;0;0,0,623.5955,1.0,750.0,-288.0,1,0
481,624.3451,-78975.7941,-78351.4490,78976.4277,624.9787,0.3001,625.2788,0.3668,275,0.45,-275,0.6421,0;0.5;0,0,624.8959,0.0,-883.0,-239.0,1,1
482,625.6456,-78977.0946,-78351.4490,78977.2947,625.8457,0.3001,626.1458,0.3668,-275,0.2,275,0.75,1;0;0,1,625.7628,0.0,-880.0,-253.0,1,0
483,626.5126,-78977.9616,-78351.4490,78978.3618,626.9128,0.3001,627.2129,0.3668,-275,0.2,275,0.2235,0;0.5;0,1,626.8217,1.0,757.0,-281.0,1,1
484,627.5797,-78979.0287,-78351.4490,78979.4455,627.9966,0.3001,628.2967,0.3668,-275,0.45,275,0.5171,1;0;0,1,627.9055,0.0,-913.0,-230.0,1,0
485,628.6635,-78980.1125,-78351.4490,78980.5293,629.0803,0.3001,629.3804,0.3668,-275,0.05,275,0.0735,0;0.5;0,1,628.9893,1.0,759.0,-273.0,1,1
486,629.7473,-78981.1962,-78351.4490,78981.6298,630.1808,0.3001,630.4809,0.3668,-275,0.45,275,0.6421,0;0.5;0,1,630.0980,1.0,761.0,-270.0,1,1
487,630.8477,-78982.2967,-78351.4490,78983.3138,631.8648,0.3001,632.1649,0.3668,275,0.45,-275,0.4735,1;0;0,0,631.7737,1.0,747.0,-268.0,1,0
488,632.5317,-78983.9807,-78351.4490,78984.6643,633.2153,0.3001,633.5155,0.3668,-275,0.05,275,0.1171,0;0.5;0,1,633.1326,1.0,756.0,-277.0,1,1
489,633.8823,-78985.3313,-78351.4490,78986.0482,634.5992,0.3001,634.8993,0.3668,-275,0.45,275,0.5171,0;0.5;0,1,634.5166,1.0,746.0,-280.0,1,1
490,635.2662,-78986.7151,-78351.4490,78987.1487,635.6997,0.3001,635.9998,0.3668,-275,0.45,275,0.4582,1;0;0,1,635.6169,0.0,-846.0,-284.0,1,0
491,636.3666,-78987.8156,-78351.4490,78988.1824,636.7334,0.3001,637.0335,0.3668,275,0.45,-275,0.5171,0;0.5;0,0,636.6507,0.0,-831.0,-293.0,1,1
492,637.4004,-78988.8493,-78351.4490,78989.1328,637.6838,0.3001,637.9839,0.3668,-275,0.05,275,0.0735,0;0.5;0,1,637.6009,1.0,757.0,-273.0,1,1
493,638.3507,-78989.7997,-78351.4490,78989.9665,638.5175,0.3001,638.8176,0.3668,275,0.0167,-275,0.0838,1;0;0,0,638.4264,1.0,783.0,-256.0,1,0
494,639.1844,-78990.6334,-78351.4490,78990.8501,639.4012,0.3001,639.7013,0.3668,-275,0,275,0.001,0;0.5;0,1,639.3100,1.0,789.0,-248.0,1,1
495,640.0681,-78991.5171,-78351.4490,78993.0344,641.5854,0.3001,641.8855,0.3668,275,0.0088,-275,0.0323,1;0;0,0,641.4943,1.0,831.0,-242.0,1,0
496,642.2523,-78993.7013,-78351.4490,78994.9018,643.4528,0.3001,643.7529,0.3668,275,0.2,-275,0.2082,0;0.5;0,0,643.3702,0.0,-743.0,-74.0,1,1
497,644.1197,-78995.5687,-78351.4490,78996.0522,644.6033,0.3001,644.9034,0.3668,-275,0.2,275,0.2235,0;0.5;0,1,644.5205,1.0,775.0,-253.0,1,1
498,645.2702,-78996.7192,-78351.4490,78997.1860,645.7371,0.3001,646.0372,0.3668,275,0,-275,0.0235,0;0.5;0,0,645.6460,0.0,-831.0,-78.0,1,1
499,646.4040,-78997.8530,-78351.4490,78998.5366,647.0876,0.3001,647.3877,0.3668,-275,0.45,275,0.6421,0;0.5;0,1,647.0049,1.0,758.0,-264.0,1,1
500,647.7545,-78999.2035,-78351.4490,78999.7871,648.3381,0.3001,648.6382,0.3668,275,0.05,-275,0.1171,1;0;0,0,648.2470,1.0,740.0,-255.0,1,0
501,649.0050,-79000.4540,-78351.4490,79000.8709,649.4219,0.3001,649.7220,0.3668,275,0.05,-275,0.0529,0;0.5;0,0,649.3392,0.0,-807.0,-92.0,1,1
502,650.0888,-79001.5378,-78351.4490,79001.9213,650.4723,0.3001,650.7724,0.3668,-275,0.45,275,0.4582,0;0.5;0,1,650.3896,1.0,759.0,-244.0,1,1
503,651.1392,-79002.5882,-78351.4490,79003.3552,651.9062,0.3001,652.2063,0.3668,275,0.2,-275,0.75,0;0.5;0,0,651.8152,0.0,-815.0,-71.0,1,1
504,652.5732,-79004.0221,-78351.4490,79004.1889,652.7399,0.3001,653.0400,0.3668,-275,0.2,275,1,0;0.5;0,1,652.6488,1.0,749.0,-253.0,1,1
505,653.4068,-79004.8558,-78351.4490,79005.4894,654.0404,0.3001,654.3405,0.3668,-275,0.0167,275,0.2088,1;0;0,1,653.9577,0.0,-812.0,-47.0,1,0
506,654.7073,-79006.1563,-78351.4490,79006.5898,655.1409,0.3001,655.4410,0.3668,275,0.05,-275,0.2421,1;0;0,0,655.0580,1.0,745.0,-244.0,1,0
507,655.8078,-79007.2568,-78351.4490,79007.6069,656.1579,0.3001,656.4581,0.3668,275,0.05,-275,0.2421,0;0.5;0,0,656.0752,0.0,-792.0,-47.0,1,1
508,656.8249,-79008.2739,-78351.4490,79008.8908,657.4418,0.3001,657.7419,0.3668,275,0.45,-275,0.4582,1;0;0,0,657.3507,1.0,745.0,-254.0,1,0
509,658.1087,-79009.5577,-78351.4490,79009.9745,658.5256,0.3001,658.8257,0.3668,275,0.0167,-275,0.2088,1;0;0,0,658.4429,1.0,719.0,-272.0,1,0
510,659.1925,-79010.6415,-78351.4490,79011.1250,659.6760,0.3001,659.9761,0.3668,-275,0.05,275,0.2421,1;0;0,1,659.5850,0.0,-806.0,-71.0,1,0
511,660.3430,-79011.7919,-78351.4490,79012.1254,660.6764,0.3001,660.9765,0.3668,-275,0,275,0.0235,1;0;0,1,660.5936,0.0,-774.0,-86.0,1,0
512,661.3434,-79012.7923,-78351.4490,79013.2092,661.7602,0.3001,662.0603,0.3668,275,0.2,-275,1,1;0;0,0,661.6692,1.0,692.0,-263.0,1,0
513,662.4271,-79013.8761,-78351.4490,79014.3596,662.9107,0.3001,663.2108,0.3668,-275,0.05,275,0.2421,1;0;0,1,662.8196,0.0,-795.0,-62.0,1,0
514,663.5776,-79015.0266,-78351.4490,79015.5768,664.1278,0.3001,664.4279,0.3668,-275,0.2,275,0.2671,0;0.5;0,1,664.0368,1.0,710.0,-257.0,1,1
515,664.7948,-79016.2437,-78351.4490,79016.8106,665.3617,0.3001,665.6618,0.3668,-275,0.45,275,0.4582,0;0.5;0,1,665.2707,1.0,709.0,-258.0,1,1
516,666.0286,-79017.4776,-78351.4490,79018.2112,666.7622,0.3001,667.0623,0.3668,-275,0.0167,275,0.0249,0;0.5;0,1,666.6793,1.0,699.0,-263.0,1,1
517,667.4292,-79018.8781,-78351.4490,79019.6284,668.1795,0.3001,668.4796,0.3668,275,0.0167,-275,0.0838,0;0.5;0,0,668.0966,0.0,-760.0,-104.0,1,1
518,668.8464,-79020.2954,-78351.4490,79021.0957,669.6467,0.3001,669.9468,0.3668,275,0.0088,-275,0.0098,0;0.5;0,0,669.5640,0.0,-768.0,-95.0,1,1
519,670.3137,-79021.7626,-78351.4490,79022.3295,670.8805,0.3001,671.1807,0.3668,275,0.45,-275,0.6421,1;0;0,0,670.7979,1.0,685.0,-263.0,1,0
520,671.5475,-79022.9965,-78351.4490,79023.2966,671.8476,0.3001,672.1477,0.3668,-275,0.2,275,1,1;0;0,1,671.7566,0.0,-781.0,-87.0,1,0
521,672.5145,-79023.9635,-78351.4490,79024.1136,672.6646,0.3001,672.9647,0.3668,-275,0.05,275,0.2421,0;0.5;0,1,672.5736,1.0,683.0,-266.0,1,1
522,673.3315,-79024.7805,-78351.4490,79025.4975,674.0485,0.3001,674.3486,0.3668,275,0,-275,0.001,0;0.5;0,0,673.9575,0.0,-825.0,-75.0,1,1
523,674.7154,-79026.1644,-78351.4490,79026.7647,675.3157,0.3001,675.6158,0.3668,-275,0.45,275,0.4735,1;0;0,1,675.2331,0.0,-829.0,-79.0,1,0
524,675.9826,-79027.4316,-78351.4490,79027.7817,676.3327,0.3001,676.6329,0.3668,275,0,-275,0.1921,1;0;0,0,676.2416,1.0,692.0,-246.0,1,0
525,676.9997,-79028.4487,-78351.4490,79028.9322,677.4832,0.3001,677.7833,0.3668,275,0.0088,-275,0.2009,1;0;0,0,677.4004,1.0,682.0,-257.0,1,0
526,678.1502,-79029.5991,-78351.4490,79029.8826,678.4336,0.3001,678.7337,0.3668,275,0,-275,0.0235,1;0;0,0,678.3509,1.0,656.0,-271.0,1,0
527,679.1005,-79030.5495,-78351.4490,79031.1331,679.6841,0.3001,679.9842,0.3668,-275,0,275,0.1921,0;0.5;0,1,679.5932,1.0,669.0,-263.0,1,1
528,680.3510,-79031.8000,-78351.4490,79031.9001,680.4511,0.3001,680.7512,0.3668,275,0,-275,0.0235,1;0;0,0,680.3601,1.0,668.0,-268.0,1,0
529,681.1180,-79032.5670,-78351.4490,79033.1172,681.6682,0.3001,681.9684,0.3668,275,0,-275,0.0671,0;0.5;0,0,681.5772,0.0,-781.0,-92.0,1,1
530,682.3352,-79033.7842,-78351.4490,79034.3177,682.8687,0.3001,683.1688,0.3668,275,0.0088,-275,0.0117,0;0.5;0,0,682.7860,0.0,-792.0,-85.0,1,1
531,683.5357,-79034.9846,-78351.4490,79035.6683,684.2193,0.3001,684.5194,0.3668,-275,0,275,0.0671,1;0;0,1,684.1282,0.0,-824.0,-107.0,1,0
532,684.8862,-79036.3352,-78351.4490,79036.9354,685.4864,0.3001,685.7866,0.3668,275,0.45,-275,0.4735,0;0.5;0,0,685.3953,0.0,-775.0,-111.0,1,1
533,686.1534,-79037.6024,-78351.4490,79040.4035,688.9545,0.3001,689.2546,0.3668,275,0.45,-275,0.4735,1;0;0,0,688.8635,1.0,418.0,-91.0,1,0
534,689.6214,-79041.0704,-78351.4490,79041.6873,690.2384,0.3001,690.5385,0.3668,275,0.45,-275,0.4582,0;0.5;0,0,690.1474,0.0,-641.0,-349.0,1,1
535,690.9053,-79042.3543,-78351.4490,79043.0212,691.5722,0.3001,691.8724,0.3668,-275,0.2,275,1,0;0.5;0,1,691.4895,1.0,731.0,-277.0,1,1
536,692.2392,-79043.6882,-78351.4490,79044.3051,692.8561,0.3001,693.1562,0.3668,275,0.0167,-275,0.0177,1;0;0,0,692.7650,1.0,705.0,-264.0,1,0
537,693.5230,-79044.9720,-78351.4490,79045.5556,694.1066,0.3001,694.4067,0.3668,-275,0.0088,275,0.2009,0;0.5;0,1,694.0156,1.0,709.0,-263.0,1,1
538,694.7735,-79046.2225,-78351.4490,79046.9228,695.4738,0.3001,695.7739,0.3668,-275,0.45,275,1,0;0.5;0,1,695.3910,1.0,682.0,-292.0,1,1
539,696.1407,-79047.5897,-78351.4490,79048.3567,696.9077,0.3001,697.2078,0.3668,275,0.05,-275,0.0582,1;0;0,0,696.8251,1.0,639.0,-284.0,1,0
540,697.5747,-79049.0236,-78351.4490,79049.5905,698.1416,0.3001,698.4417,0.3668,275,0.0167,-275,0.0402,1;0;0,0,698.0506,1.0,588.0,-243.0,1,0
541,698.8085,-79050.2575,-78351.4490,79050.6410,699.1920,0.3001,699.4921,0.3668,-275,0.0167,275,0.2088,0;0.5;0,1,699.1093,1.0,581.0,-204.0,1,1
542,699.8589,-79051.3079,-78351.4490,79051.9248,700.4758,0.3001,700.7760,0.3668,-275,0.05,275,0.0735,0;0.5;0,1,700.3848,1.0,575.0,-252.0,1,1
543,701.1428,-79052.5918,-78351.4490,79053.1920,701.7430,0.3001,702.0431,0.3668,-275,0.45,275,0.5171,0;0.5;0,1,701.6521,1.0,551.0,-268.0,1,1
544,702.4099,-79053.8589,-78351.4490,79054.5092,703.0602,0.3001,703.3603,0.3668,275,0.05,-275,0.2421,0;0.5;0,0,702.9774,0.0,-620.0,-287.0,1,1
545,703.7271,-79055.1761,-78351.4490,79055.5263,704.0773,0.3001,704.3774,0.3668,-275,0,275,0.0235,1;0;0,1,703.9946,0.0,-628.0,-253.0,1,0
546,704.7442,-79056.1932,-78351.4490,79056.7268,705.2778,0.3001,705.5779,0.3668,275,0.45,-275,1,0;0.5;0,0,705.1868,0.0,-615.0,-253.0,1,1
547,705.9447,-79057.3937,-78351.4490,79057.5271,706.0781,0.3001,706.3782,0.3668,275,0.05,-275,0.0582,1;0;0,0,705.9953,1.0,548.0,-239.0,1,0
548,706.7450,-79058.1940,-78351.4490,79058.5608,707.1118,0.3001,707.4120,0.3668,-275,0.0088,275,0.0098,1;0;0,1,707.0291,0.0,-596.0,-262.0,1,0
549,707.7788,-79059.2278,-78351.4490,79059.7446,708.2957,0.3001,708.5958,0.3668,-275,0.0167,275,0.0196,1;0;0,1,708.2046,0.0,-606.0,-214.0,1,0
550,708.9626,-79060.4116,-78351.4490,79060.8951,709.4461,0.3001,709.7462,0.3668,-275,0.0167,275,0.0402,1;0;0,1,709.3634,0.0,-619.0,-231.0,1,0
551,710.1131,-79061.5620,-78351.4490,79061.8288,710.3798,0.3001,710.6800,0.3668,-275,0,275,0.0029,0;0.5;0,1,710.2972,1.0,523.0,-198.0,1,1
552,711.0468,-79062.4958,-78351.4490,79062.8459,711.3969,0.3001,711.6970,0.3668,-275,0.05,275,0.2421,0;0.5;0,1,711.3141,1.0,512.0,-187.0,1,1
553,712.0638,-79063.5128,-78351.4490,79063.6796,712.2306,0.3001,712.5307,0.3668,275,0.45,-275,0.6421,1;0;0,0,712.1396,1.0,517.0,-168.0,1,0
554,712.8975,-79064.3465,-78351.4490,79065.5303,714.0813,0.3001,714.3814,0.3668,-275,0.2,275,0.2235,0;0.5;0,1,713.9902,1.0,569.0,-205.0,1,1
555,714.7483,-79066.1972,-78351.4490,79067.1310,715.6820,0.3001,715.9821,0.3668,275,0.2,-275,0.3921,0;0.5;0,0,715.5909,0.0,-637.0,-291.0,1,1
556,716.3489,-79067.7979,-78351.4490,79068.5482,717.0992,0.3001,717.3993,0.3668,275,0.2,-275,0.3921,0;0.5;0,0,717.0081,0.0,-634.0,-268.0,1,1
557,717.7661,-79069.2151,-78351.4490,79069.7820,718.3330,0.3001,718.6332,0.3668,275,0.0088,-275,0.0098,0;0.5;0,0,718.2420,0.0,-606.0,-237.0,1,1
558,719.0000,-79070.4490,-78351.4490,79070.7991,719.3501,0.3001,719.6502,0.3668,275,0.0088,-275,0.017,0;0.5;0,0,719.2674,0.0,-609.0,-216.0,1,1
559,720.0171,-79071.4660,-78351.4490,79071.8662,720.4172,0.3001,720.7173,0.3668,275,0,-275,0.0029,0;0.5;0,0,720.3345,0.0,-596.0,-203.0,1,1
560,721.0842,-79072.5331,-78351.4490,79073.2834,721.8345,0.3001,722.1346,0.3668,-275,0.45,275,0.6421,0;0.5;0,1,721.7435,1.0,581.0,-246.0,1,1