trial,presentation_startTime,presentation_duration,prefeedback_startTime,prefeedback_duration,feedback_startTime,feedback_duration,fixation_startTime,fixation_duration,presentation_object1_positionX,presentation_object1_contrastValue,presentation_object2_positionX,presentation_object2_contrastValue,feedback_object1_color,trialValue,presentation_responseTime,presentation_response,presentation_touchPositionX,presentation_touchPositionY,respondedInTime,correct
1,111.9790,-5149.5889,-5037.6099,5150.1891,112.5792,0.3001,112.8793,0.3668,275,0,-275,0.0235,1;0;0,0,112.4964,1.0,610.0,30.0,1,0
2,113.2462,-5150.8561,-5037.6099,5151.5564,113.9464,0.3001,114.2466,0.3668,275,0.45,-275,0.5171,0;0.5;0,0,113.8554,0.0,-850.0,4.0,1,1
3,114.6134,-5152.2233,-5037.6099,5153.2737,115.6638,0.3001,115.9639,0.3668,-275,0.2,275,0.2235,1;0;0,1,115.5812,0.0,-884.0,15.0,1,0
4,116.3307,-5153.9407,-5037.6099,5154.6910,117.0810,0.3001,117.3812,0.3668,275,0.05,-275,0.0529,0;0.5;0,0,116.9900,0.0,-884.0,-9.0,1,1
5,117.7480,-5155.3579,-5037.6099,5156.0082,118.3983,0.3001,118.6984,0.3668,-275,0.05,275,0.1171,0;0.5;0,1,118.3072,1.0,686.0,8.0,1,1
6,119.0652,-5156.6751,-5037.6099,5157.2420,119.6321,0.3001,119.9322,0.3668,275,0.0167,-275,0.0838,0;0.5;0,0,119.5494,0.0,-884.0,-6.0,1,1
7,120.2990,-5157.9090,-5037.6099,5158.9260,121.3161,0.3001,121.6162,0.3668,-275,0.0167,275,0.0196,1;0;0,1,121.2334,0.0,-903.0,11.0,1,0
8,121.9830,-5159.5930,-5037.6099,5160.2432,122.6333,0.3001,122.9334,0.3668,-275,0.05,275,0.1171,0;0.5;0,1,122.5506,1.0,688.0,0.0,1,1
9,123.3002,-5160.9102,-5037.6099,5166.0789,128.4690,0.3001,128.7691,0.3668,275,0,-275,0.001,1;0;0,0,128.3780,1.0,689.0,0.0,1,0
10,129.1360,-5166.7459,-5037.6099,5167.3795,129.7695,0.3001,130.0697,0.3668,-275,0.45,275,0.4735,1;0;0,1,129.6867,0.0,-875.0,-14.0,1,0
11,130.4365,-5168.0464,-5037.6099,5170.3307,132.7207,0.3001,133.0209,0.3668,-275,0.0088,275,0.0098,0;0.5;0,1,132.6381,1.0,702.0,-5.0,1,1
12,133.3877,-5170.9976,-5037.6099,5172.2481,134.6382,0.3001,134.9383,0.3668,-275,0.0167,275,0.0838,0;0.5;0,1,134.5471,1.0,706.0,5.0,1,1
13,135.3051,-5172.9151,-5037.6099,5173.5653,135.9554,0.3001,136.2555,0.3668,275,0.05,-275,0.1171,0;0.5;0,0,135.8643,0.0,-908.0,20.0,1,1
14,136.6223,-5174.2323,-5037.6099,5174.8158,137.2059,0.3001,137.5060,0.3668,-275,0.45,275,1,0;0.5;0,1,137.1149,1.0,696.0,4.0,1,1
15,137.8728,-5175.4828,-5037.6099,5176.2998,138.6898,0.3001,138.9900,0.3668,275,0.0167,-275,0.0177,1;0;0,0,138.6070,1.0,696.0,1.0,1,0
16,139.3568,-5176.9667,-5037.6099,5177.6336,140.0237,0.3001,140.3238,0.3668,275,0,-275,0.0235,0;0.5;0,0,139.9326,0.0,-886.0,-20.0,1,1
17,140.6907,-5178.3006,-5037.6099,5179.0509,141.4410,0.3001,141.7411,0.3668,-275,0,275,0.0235,0;0.5;0,1,141.3500,1.0,693.0,-6.0,1,1
18,142.1079,-5179.7178,-5037.6099,5180.4014,142.7915,0.3001,143.0916,0.3668,275,0.05,-275,0.6,0;0.5;0,0,142.7005,0.0,-884.0,-4.0,1,1
19,143.4585,-5181.0684,-5037.6099,5181.6019,143.9920,0.3001,144.2921,0.3668,-275,0,275,0.0235,0;0.5;0,1,143.9009,1.0,695.0,-12.0,1,1
20,144.6589,-5182.2689,-5037.6099,5182.9525,145.3426,0.3001,145.6427,0.3668,275,0.05,-275,0.2421,0;0.5;0,0,145.2599,0.0,-878.0,-21.0,1,1
21,146.0095,-5183.6194,-5037.6099,5184.2530,146.6431,0.3001,146.9432,0.3668,275,0.05,-275,0.2421,0;0.5;0,0,146.5521,0.0,-870.0,-27.0,1,1
22,147.3100,-5184.9199,-5037.6099,5185.4702,147.8602,0.3001,148.1604,0.3668,275,0.2,-275,0.75,0;0.5;0,0,147.7692,0.0,-874.0,-18.0,1,1
23,148.5272,-5186.1371,-5037.6099,5186.9875,149.3775,0.3001,149.6777,0.3668,-275,0.2,275,0.2671,0;0.5;0,1,149.2948,1.0,697.0,-5.0,1,1
24,150.0445,-5187.6544,-5037.6099,5188.2880,150.6781,0.3001,150.9782,0.3668,-275,0,275,0.0671,0;0.5;0,1,150.5952,1.0,693.0,-13.0,1,1
25,151.3450,-5188.9549,-5037.6099,5189.6052,151.9953,0.3001,152.2954,0.3668,-275,0.0088,275,0.0759,0;0.5;0,1,151.9042,1.0,695.0,-11.0,1,1
26,152.6622,-5190.2721,-5037.6099,5190.8223,153.2124,0.3001,153.5125,0.3668,275,0.0088,-275,0.2009,0;0.5;0,0,153.1214,0.0,-868.0,-22.0,1,1
27,153.8794,-5191.4893,-5037.6099,5192.4397,154.8297,0.3001,155.1299,0.3668,-275,0,275,0.0082,0;0.5;0,1,154.7386,1.0,696.0,-10.0,1,1
28,155.4967,-5193.1066,-5037.6099,5193.6235,156.0136,0.3001,156.3137,0.3668,-275,0,275,0.0235,0;0.5;0,1,155.9310,1.0,696.0,-13.0,1,1
29,156.6805,-5194.2904,-5037.6099,5195.0908,157.4808,0.3001,157.7809,0.3668,-275,0.45,275,0.6421,0;0.5;0,1,157.3897,1.0,693.0,-9.0,1,1
30,158.1478,-5195.7577,-5037.6099,5196.2912,158.6813,0.3001,158.9814,0.3668,-275,0.2,275,0.75,0;0.5;0,1,158.5986,1.0,690.0,-3.0,1,1
31,159.3483,-5196.9582,-5037.6099,5198.1420,160.5321,0.3001,160.8322,0.3668,-275,0.2,275,0.2235,1;0;0,1,160.4493,0.0,-879.0,-24.0,1,0
32,161.1990,-5198.8089,-5037.6099,5199.3758,161.7659,0.3001,162.0660,0.3668,275,0.45,-275,1,0;0.5;0,0,161.6832,0.0,-869.0,-32.0,1,1
33,162.4328,-5200.0428,-5037.6099,5202.0436,164.4337,0.3001,164.7338,0.3668,275,0,-275,0.0082,1;0;0,0,164.3508,1.0,687.0,-14.0,1,0
34,165.1006,-5202.7105,-5037.6099,5203.7443,166.1343,0.3001,166.4345,0.3668,-275,0,275,0.0082,0;0.5;0,1,166.0515,1.0,686.0,-18.0,1,1
35,166.8013,-5204.4112,-5037.6099,5204.9948,167.3849,0.3001,167.6850,0.3668,275,0.0088,-275,0.0759,0;0.5;0,0,167.2937,0.0,-872.0,-33.0,1,1
36,168.0518,-5205.6617,-5037.6099,5206.2620,168.6520,0.3001,168.9522,0.3668,-275,0.45,275,1,0;0.5;0,1,168.5611,1.0,687.0,-8.0,1,1
37,169.3190,-5206.9289,-5037.6099,5207.4958,169.8859,0.3001,170.1860,0.3668,275,0,-275,0.0671,0;0.5;0,0,169.7948,0.0,-870.0,-41.0,1,1
38,170.5528,-5208.1627,-5037.6099,5208.7963,171.1864,0.3001,171.4865,0.3668,-275,0.45,275,1,0;0.5;0,1,171.1039,1.0,692.0,-12.0,1,1
39,171.8533,-5209.4633,-5037.6099,5210.2636,172.6537,0.3001,172.9538,0.3668,-275,0.45,275,1,0;0.5;0,1,172.5627,1.0,695.0,-12.0,1,1
40,173.3206,-5210.9305,-5037.6099,5211.7142,174.1043,0.3001,174.4044,0.3668,-275,0.0088,275,0.0759,0;0.5;0,1,174.0215,1.0,690.0,-15.0,1,1
41,174.7712,-5212.3811,-5037.6099,5213.1981,175.5882,0.3001,175.8883,0.3668,-275,0.45,275,0.4582,1;0;0,1,175.4972,0.0,-867.0,-32.0,1,0
42,176.2551,-5213.8651,-5037.6099,5215.6158,178.0058,0.3001,178.3060,0.3668,-275,0.0088,275,0.0117,0;0.5;0,1,177.9148,1.0,689.0,-16.0,1,1
43,178.6728,-5216.2827,-5037.6099,5216.8996,179.2897,0.3001,179.5898,0.3668,275,0.45,-275,1,0;0.5;0,0,179.1987,0.0,-859.0,-44.0,1,1
44,179.9566,-5217.5666,-5037.6099,5218.3169,180.7069,0.3001,181.0071,0.3668,-275,0.0167,275,0.0402,0;0.5;0,1,180.6159,1.0,683.0,-23.0,1,1
45,181.3739,-5218.9838,-5037.6099,5219.5507,181.9408,0.3001,182.2409,0.3668,275,0.2,-275,0.3921,0;0.5;0,0,181.8497,0.0,-852.0,-47.0,1,1
46,182.6077,-5220.2176,-5037.6099,5220.8346,183.2246,0.3001,183.5248,0.3668,-275,0.45,275,0.5171,0;0.5;0,1,183.1418,1.0,689.0,-20.0,1,1
47,183.8916,-5221.5015,-5037.6099,5223.0021,185.3922,0.3001,185.6923,0.3668,275,0.05,-275,0.0735,0;0.5;0,0,185.3012,0.0,-858.0,-45.0,1,1
48,186.0591,-5223.6690,-5037.6099,5224.5027,186.8928,0.3001,187.1929,0.3668,-275,0.45,275,0.5171,0;0.5;0,1,186.8017,1.0,689.0,-18.0,1,1
49,187.5597,-5225.1697,-5037.6099,5226.0200,188.4101,0.3001,188.7102,0.3668,-275,0.45,275,0.4735,1;0;0,1,188.3273,0.0,-857.0,-51.0,1,0
50,189.0770,-5226.6869,-5037.6099,5227.3372,189.7273,0.3001,190.0274,0.3668,275,0.2,-275,0.75,0;0.5;0,0,189.6445,0.0,-846.0,-58.0,1,1
51,190.3942,-5228.0041,-5037.6099,5229.0045,191.3946,0.3001,191.6947,0.3668,275,0.0167,-275,0.0177,1;0;0,0,191.3035,1.0,692.0,-14.0,1,0
52,192.0616,-5229.6715,-5037.6099,5230.2551,192.6451,0.3001,192.9453,0.3668,275,0.05,-275,0.0735,0;0.5;0,0,192.5624,0.0,-847.0,-61.0,1,1
53,193.3121,-5230.9220,-5037.6099,5232.1058,194.4959,0.3001,194.7960,0.3668,-275,0.0167,275,0.0249,0;0.5;0,1,194.4131,1.0,686.0,-19.0,1,1
54,195.1628,-5232.7727,-5037.6099,5233.5231,195.9131,0.3001,196.2132,0.3668,275,0.0167,-275,0.0196,0;0.5;0,0,195.8222,0.0,-858.0,-57.0,1,1
55,196.5801,-5234.1900,-5037.6099,5234.9403,197.3304,0.3001,197.6305,0.3668,275,0.2,-275,0.2671,0;0.5;0,0,197.2476,0.0,-852.0,-53.0,1,1
56,197.9973,-5235.6072,-5037.6099,5236.2575,198.6476,0.3001,198.9477,0.3668,275,0.05,-275,0.0529,0;0.5;0,0,198.5649,0.0,-853.0,-53.0,1,1
57,199.3145,-5236.9244,-5037.6099,5237.4246,199.8147,0.3001,200.1148,0.3668,275,0.2,-275,0.75,0;0.5;0,0,199.7320,0.0,-852.0,-56.0,1,1
58,200.4816,-5238.0916,-5037.6099,5238.6418,201.0319,0.3001,201.3320,0.3668,275,0.05,-275,0.2421,0;0.5;0,0,200.9409,0.0,-846.0,-63.0,1,1
59,201.6988,-5239.3087,-5037.6099,5239.9090,202.2991,0.3001,202.5992,0.3668,-275,0.0088,275,0.017,0;0.5;0,1,202.2079,1.0,682.0,-21.0,1,1
60,202.9660,-5240.5759,-5037.6099,5242.1599,204.5500,0.3001,204.8501,0.3668,275,0,-275,0.0029,0;0.5;0,0,204.4671,0.0,-826.0,-77.0,1,1
61,205.2169,-5242.8268,-5037.6099,5243.7772,206.1673,0.3001,206.4674,0.3668,-275,0.0167,275,0.0196,1;0;0,1,206.0845,0.0,-839.0,-65.0,1,0
62,206.8342,-5244.4442,-5037.6099,5244.9110,207.3011,0.3001,207.6012,0.3668,-275,0.0167,275,0.2088,0;0.5;0,1,207.2183,1.0,684.0,-31.0,1,1
63,207.9680,-5245.5780,-5037.6099,5246.1949,208.5849,0.3001,208.8851,0.3668,275,0.0167,-275,0.0402,0;0.5;0,0,208.5027,0.0,-844.0,-74.0,1,1
64,209.2519,-5246.8618,-5037.6099,5247.3620,209.7521,0.3001,210.0522,0.3668,275,0.0088,-275,0.2009,0;0.5;0,0,209.6694,0.0,-841.0,-64.0,1,1
65,210.4190,-5248.0290,-5037.6099,5248.6292,211.0193,0.3001,211.3194,0.3668,275,0.05,-275,0.0529,0;0.5;0,0,210.9366,0.0,-846.0,-66.0,1,1
66,211.6862,-5249.2961,-5037.6099,5250.9135,213.3035,0.3001,213.6037,0.3668,275,0,-275,0.0029,1;0;0,0,213.2124,1.0,687.0,-28.0,1,0
67,213.9705,-5251.5804,-5037.6099,5252.0306,214.4207,0.3001,214.7208,0.3668,275,0.0167,-275,0.2088,0;0.5;0,0,214.3379,0.0,-836.0,-70.0,1,1
68,215.0876,-5252.6975,-5037.6099,5253.2644,215.6545,0.3001,215.9546,0.3668,275,0.45,-275,0.6421,0;0.5;0,0,215.5717,0.0,-846.0,-68.0,1,1
69,216.3214,-5253.9314,-5037.6099,5254.5649,216.9550,0.3001,217.2551,0.3668,275,0.0088,-275,0.0117,0;0.5;0,0,216.8640,0.0,-847.0,-70.0,1,1
70,217.6220,-5255.2319,-5037.6099,5256.2156,218.6057,0.3001,218.9058,0.3668,275,0.05,-275,0.0735,0;0.5;0,0,218.5230,0.0,-846.0,-60.0,1,1
71,219.2726,-5256.8826,-5037.6099,5257.3994,219.7895,0.3001,220.0896,0.3668,-275,0.0088,275,0.2009,0;0.5;0,1,219.6983,1.0,692.0,-27.0,1,1
72,220.4564,-5258.0664,-5037.6099,5259.1668,221.5569,0.3001,221.8570,0.3668,275,0.0088,-275,0.0098,0;0.5;0,0,221.4658,0.0,-846.0,-58.0,1,1
73,222.2238,-5259.8337,-5037.6099,5260.5841,222.9741,0.3001,223.2742,0.3668,-275,0.0088,275,0.0117,1;0;0,1,222.8830,0.0,-847.0,-68.0,1,0
74,223.6411,-5261.2510,-5037.6099,5261.9680,224.3580,0.3001,224.6581,0.3668,275,0.45,-275,0.4582,0;0.5;0,0,224.2752,0.0,-843.0,-61.0,1,1
75,225.0250,-5262.6349,-5037.6099,5263.3685,225.7586,0.3001,226.0587,0.3668,275,0.0088,-275,0.0098,0;0.5;0,0,225.6758,0.0,-847.0,-57.0,1,1
76,226.4255,-5264.0355,-5037.6099,5264.6690,227.0591,0.3001,227.3592,0.3668,-275,0.0167,275,0.0177,1;0;0,1,226.9763,0.0,-845.0,-57.0,1,0
77,227.7261,-5265.3360,-5037.6099,5265.7195,228.1095,0.3001,228.4097,0.3668,275,0,-275,0.0082,1;0;0,0,228.0269,1.0,693.0,-23.0,1,0
78,228.7765,-5266.3864,-5037.6099,5266.8533,229.2433,0.3001,229.5435,0.3668,-275,0,275,0.0235,1;0;0,1,229.1605,0.0,-837.0,-51.0,1,0
79,229.9103,-5267.5202,-5037.6099,5268.0871,230.4772,0.3001,230.7773,0.3668,275,0.45,-275,0.5171,1;0;0,0,230.3860,1.0,685.0,-28.0,1,0
80,231.1441,-5268.7540,-5037.6099,5269.3043,231.6943,0.3001,231.9945,0.3668,275,0.45,-275,0.6421,0;0.5;0,0,231.6032,0.0,-835.0,-57.0,1,1
81,232.3613,-5269.9712,-5037.6099,5270.5881,232.9782,0.3001,233.2783,0.3668,-275,0.05,275,0.0582,1;0;0,1,232.8954,0.0,-835.0,-59.0,1,0
82,233.6451,-5271.2551,-5037.6099,5271.7386,234.1287,0.3001,234.4288,0.3668,-275,0.0088,275,0.2009,0;0.5;0,1,234.0376,1.0,695.0,-24.0,1,1
83,234.7956,-5272.4055,-5037.6099,5272.9057,235.2958,0.3001,235.5959,0.3668,-275,0,275,0.0671,0;0.5;0,1,235.2047,1.0,680.0,-25.0,1,1
84,235.9627,-5273.5727,-5037.6099,5274.0229,236.4129,0.3001,236.7130,0.3668,-275,0.05,275,0.6,0;0.5;0,1,236.3302,1.0,687.0,-28.0,1,1
85,237.0799,-5274.6898,-5037.6099,5276.5906,238.9806,0.3001,239.2808,0.3668,275,0,-275,0.001,1;0;0,0,238.8979,1.0,688.0,-27.0,1,0
86,239.6476,-5277.2575,-5037.6099,5277.9911,240.3812,0.3001,240.6813,0.3668,275,0.05,-275,0.0529,0;0.5;0,0,240.2901,0.0,-829.0,-57.0,1,1
87,241.0481,-5278.6581,-5037.6099,5279.2083,241.5984,0.3001,241.8985,0.3668,275,0.0167,-275,0.0402,0;0.5;0,0,241.5157,0.0,-836.0,-51.0,1,1
88,242.2653,-5279.8752,-5037.6099,5280.5755,242.9656,0.3001,243.2657,0.3668,275,0.2,-275,0.2235,0;0.5;0,0,242.8830,0.0,-836.0,-49.0,1,1
89,243.6325,-5281.2425,-5037.6099,5281.9261,244.3161,0.3001,244.6163,0.3668,275,0.2,-275,0.3921,0;0.5;0,0,244.2252,0.0,-831.0,-57.0,1,1
90,244.9831,-5282.5930,-5037.6099,5283.1432,245.5333,0.3001,245.8334,0.3668,-275,0.0088,275,0.2009,0;0.5;0,1,245.4504,1.0,688.0,-28.0,1,1
91,246.2002,-5283.8102,-5037.6099,5284.2603,246.6504,0.3001,246.9505,0.3668,275,0.0167,-275,0.0838,0;0.5;0,0,246.5593,0.0,-837.0,-47.0,1,1
92,247.3174,-5284.9273,-5037.6099,5285.6776,248.0677,0.3001,248.3678,0.3668,275,0.0088,-275,0.0117,1;0;0,0,247.9765,1.0,687.0,-26.0,1,0
93,248.7346,-5286.3445,-5037.6099,5286.6280,249.0180,0.3001,249.3182,0.3668,-275,0.0088,275,0.0323,1;0;0,1,248.9271,0.0,-836.0,-47.0,1,0
94,249.6850,-5287.2949,-5037.6099,5287.4616,249.8517,0.3001,250.1518,0.3668,275,0,-275,0.1921,1;0;0,0,249.7607,1.0,677.0,-31.0,1,0
95,250.5187,-5288.1286,-5037.6099,5288.7122,251.1022,0.3001,251.4023,0.3668,275,0,-275,0.0235,0;0.5;0,0,251.0112,0.0,-827.0,-53.0,1,1
96,251.7692,-5289.3791,-5037.6099,5290.0960,252.4861,0.3001,252.7862,0.3668,275,0.0088,-275,0.0098,1;0;0,0,252.4033,1.0,672.0,-37.0,1,0
97,253.1531,-5290.7630,-5037.6099,5291.5633,253.9534,0.3001,254.2535,0.3668,-275,0.45,275,0.4582,1;0;0,1,253.8623,0.0,-827.0,-42.0,1,0
98,254.6203,-5292.2303,-5037.6099,5294.2477,256.6378,0.3001,256.9379,0.3668,-275,0,275,0.0029,0;0.5;0,1,256.5551,1.0,685.0,-28.0,1,1
99,257.3047,-5294.9147,-5037.6099,5295.7317,258.1217,0.3001,258.4219,0.3668,275,0.0088,-275,0.0117,1;0;0,0,258.0307,1.0,691.0,-23.0,1,0
100,258.7887,-5296.3986,-5037.6099,5296.9989,259.3889,0.3001,259.6890,0.3668,275,0.45,-275,0.4582,0;0.5;0,0,259.3061,0.0,-836.0,-38.0,1,1
101,260.0559,-5297.6658,-5037.6099,5298.5995,260.9896,0.3001,261.2897,0.3668,275,0.45,-275,0.5171,0;0.5;0,0,260.9069,0.0,-839.0,-39.0,1,1
102,261.6565,-5299.2664,-5037.6099,5299.9834,262.3735,0.3001,262.6736,0.3668,-275,0.0088,275,0.2009,0;0.5;0,1,262.2907,1.0,683.0,-30.0,1,1
103,263.0404,-5300.6503,-5037.6099,5301.1839,263.5740,0.3001,263.8741,0.3668,275,0.05,-275,0.1171,0;0.5;0,0,263.4827,0.0,-846.0,-39.0,1,1
104,264.2409,-5301.8508,-5037.6099,5302.5678,264.9579,0.3001,265.2580,0.3668,-275,0.05,275,0.0582,1;0;0,1,264.8753,0.0,-845.0,-38.0,1,0
105,265.6248,-5303.2347,-5037.6099,5303.5682,265.9583,0.3001,266.2584,0.3668,275,0,-275,0.0029,1;0;0,0,265.8755,1.0,681.0,-28.0,1,0
106,266.6252,-5304.2351,-5037.6099,5304.9354,267.3255,0.3001,267.6256,0.3668,275,0.0088,-275,0.0759,0;0.5;0,0,267.2429,0.0,-842.0,-39.0,1,1
107,267.9924,-5305.6024,-5037.6099,5306.2693,268.6594,0.3001,268.9595,0.3668,-275,0.45,275,0.6421,0;0.5;0,1,268.5683,1.0,682.0,-25.0,1,1
108,269.3263,-5306.9362,-5037.6099,5307.6532,270.0433,0.3001,270.3434,0.3668,-275,0.45,275,0.6421,0;0.5;0,1,269.9604,1.0,682.0,-29.0,1,1
109,270.7102,-5308.3201,-5037.6099,5308.8703,271.2604,0.3001,271.5605,0.3668,-275,0.05,275,0.0582,0;0.5;0,1,271.1778,1.0,688.0,-19.0,1,1
110,271.9274,-5309.5373,-5037.6099,5310.0041,272.3942,0.3001,272.6943,0.3668,275,0.05,-275,0.0582,1;0;0,0,272.3030,1.0,684.0,-28.0,1,0
111,273.0611,-5310.6711,-5037.6099,5313.2555,275.6455,0.3001,275.9457,0.3668,275,0,-275,0.0029,0;0.5;0,0,275.5627,0.0,-841.0,-41.0,1,1
112,276.3125,-5313.9224,-5037.6099,5314.5060,276.8960,0.3001,277.1962,0.3668,-275,0.45,275,0.4735,1;0;0,1,276.8133,0.0,-841.0,-34.0,1,0
113,277.5630,-5315.1729,-5037.6099,5315.4730,277.8631,0.3001,278.1632,0.3668,275,0,-275,0.1921,1;0;0,0,277.7803,1.0,687.0,-28.0,1,0
114,278.5300,-5316.1400,-5037.6099,5316.8736,279.2637,0.3001,279.5638,0.3668,275,0.05,-275,0.0582,0;0.5;0,0,279.1726,0.0,-847.0,-39.0,1,1
115,279.9306,-5317.5405,-5037.6099,5318.0741,280.4642,0.3001,280.7643,0.3668,-275,0.2,275,0.2671,1;0;0,1,280.3815,0.0,-838.0,-35.0,1,0
116,281.1311,-5318.7410,-5037.6099,5319.1078,281.4979,0.3001,281.7980,0.3668,275,0.2,-275,0.3921,1;0;0,0,281.4150,1.0,687.0,-28.0,1,0
117,282.1648,-5319.7748,-5037.6099,5319.9749,282.3649,0.3001,282.6650,0.3668,-275,0,275,0.001,1;0;0,1,282.2821,0.0,-835.0,-39.0,1,0
118,283.0319,-5320.6418,-5037.6099,5321.0586,283.4487,0.3001,283.7488,0.3668,275,0.45,-275,0.4582,0;0.5;0,0,283.3578,0.0,-841.0,-33.0,1,1
119,284.1156,-5321.7256,-5037.6099,5322.2925,284.6825,0.3001,284.9827,0.3668,275,0.45,-275,0.4735,0;0.5;0,0,284.5998,0.0,-844.0,-25.0,1,1
120,285.3495,-5322.9594,-5037.6099,5323.3929,285.7830,0.3001,286.0831,0.3668,-275,0.05,275,0.1171,1;0;0,1,285.7002,0.0,-855.0,-22.0,1,0
121,286.4499,-5324.0598,-5037.6099,5325.2103,287.6004,0.3001,287.9005,0.3668,-275,0.2,275,1,0;0.5;0,1,287.5093,1.0,689.0,-22.0,1,1
122,288.2673,-5325.8773,-5037.6099,5326.5108,288.9009,0.3001,289.2010,0.3668,-275,0.0088,275,0.0323,0;0.5;0,1,288.8099,1.0,696.0,-24.0,1,1
123,289.5679,-5327.1778,-5037.6099,5327.9114,290.3015,0.3001,290.6016,0.3668,275,0.0088,-275,0.0323,0;0.5;0,0,290.2186,0.0,-857.0,-12.0,1,1
124,290.9684,-5328.5783,-5037.6099,5330.1957,292.5857,0.3001,292.8859,0.3668,-275,0.0167,275,0.0196,0;0.5;0,1,292.5030,1.0,682.0,-32.0,1,1
125,293.2527,-5330.8626,-5037.6099,5331.7963,294.1864,0.3001,294.4865,0.3668,-275,0.05,275,0.6,0;0.5;0,1,294.1036,1.0,695.0,-31.0,1,1
126,294.8533,-5332.4633,-5037.6099,5333.0969,295.4869,0.3001,295.7870,0.3668,-275,0,275,0.1921,0;0.5;0,1,295.4042,1.0,719.0,-18.0,1,1
127,296.1539,-5333.7638,-5037.6099,5334.4974,296.8875,0.3001,297.1876,0.3668,-275,0.45,275,0.4582,0;0.5;0,1,296.8048,1.0,730.0,-5.0,1,1
128,297.5544,-5335.1644,-5037.6099,5335.8980,298.2881,0.3001,298.5882,0.3668,275,0.05,-275,0.0735,1;0;0,0,298.2053,1.0,734.0,-1.0,1,0
129,298.9550,-5336.5649,-5037.6099,5337.9488,300.3389,0.3001,300.6390,0.3668,275,0,-275,0.0029,1;0;0,0,300.2560,1.0,735.0,-4.0,1,0
130,301.0058,-5338.6158,-5037.6099,5339.3994,301.7895,0.3001,302.0896,0.3668,275,0.45,-275,1,0;0.5;0,0,301.7068,0.0,-837.0,-47.0,1,1
131,302.4564,-5340.0663,-5037.6099,5341.2502,303.6402,0.3001,303.9404,0.3668,-275,0.45,275,0.4735,0;0.5;0,1,303.5574,1.0,703.0,-25.0,1,1
132,304.3072,-5341.9171,-5037.6099,5342.6507,305.0408,0.3001,305.3409,0.3668,275,0.0167,-275,0.0402,0;0.5;0,0,304.9581,0.0,-878.0,-14.0,1,1
133,305.7077,-5343.3177,-5037.6099,5344.0680,306.4580,0.3001,306.7582,0.3668,-275,0.05,275,0.0735,1;0;0,1,306.3670,0.0,-889.0,11.0,1,0
134,307.1250,-5344.7349,-5037.6099,5345.5186,307.9086,0.3001,308.2088,0.3668,275,0.0088,-275,0.0759,0;0.5;0,0,307.8260,0.0,-903.0,28.0,1,1
135,308.5756,-5346.1855,-5037.6099,5346.8858,309.2759,0.3001,309.5760,0.3668,275,0.2,-275,0.2082,0;0.5;0,0,309.1849,0.0,-914.0,35.0,1,1
136,309.9428,-5347.5527,-5037.6099,5348.1363,310.5264,0.3001,310.8265,0.3668,-275,0.45,275,1,0;0.5;0,1,310.4354,1.0,735.0,1.0,1,1
137,311.1933,-5348.8032,-5037.6099,5349.5535,311.9436,0.3001,312.2437,0.3668,-275,0.2,275,0.75,0;0.5;0,1,311.8526,1.0,724.0,-15.0,1,1
138,312.6105,-5350.2205,-5037.6099,5351.6377,314.0278,0.3001,314.3279,0.3668,275,0.2,-275,0.75,1;0;0,0,313.9450,1.0,728.0,-14.0,1,0
139,314.6947,-5352.3047,-5037.6099,5353.1050,315.4950,0.3001,315.7952,0.3668,-275,0.0088,275,0.0098,1;0;0,1,315.4039,0.0,-893.0,22.0,1,0
140,316.1620,-5353.7719,-5037.6099,5354.1221,316.5121,0.3001,316.8123,0.3668,275,0,-275,0.001,1;0;0,0,316.4212,1.0,742.0,-9.0,1,0
141,317.1791,-5354.7890,-5037.6099,5354.9224,317.3125,0.3001,317.6126,0.3668,-275,0.05,275,0.1171,1;0;0,1,317.2215,0.0,-896.0,-2.0,1,0
142,317.9794,-5355.5893,-5037.6099,5356.0062,318.3962,0.3001,318.6963,0.3668,275,0.0167,-275,0.0249,1;0;0,0,318.3135,1.0,737.0,2.0,1,0
143,319.0632,-5356.6731,-5037.6099,5356.8065,319.1966,0.3001,319.4967,0.3668,275,0.05,-275,0.1171,1;0;0,0,319.1141,1.0,735.0,-3.0,1,0
144,319.8635,-5357.4734,-5037.6099,5358.3905,320.7805,0.3001,321.0806,0.3668,-275,0.0167,275,0.0838,1;0;0,1,320.6896,0.0,-931.0,40.0,1,0
145,321.4475,-5359.0574,-5037.6099,5359.7077,322.0977,0.3001,322.3979,0.3668,275,0.05,-275,0.6,0;0.5;0,0,322.0150,0.0,-921.0,25.0,1,1
146,322.7647,-5360.3746,-5037.6099,5362.1086,324.4987,0.3001,324.7988,0.3668,-275,0,275,0.0082,1;0;0,1,324.4077,0.0,-917.0,14.0,1,0
147,325.1656,-5362.7756,-5037.6099,5363.3925,325.7826,0.3001,326.0827,0.3668,275,0.05,-275,0.0529,1;0;0,0,325.7000,1.0,730.0,-3.0,1,0
148,326.4495,-5364.0594,-5037.6099,5364.7597,327.1498,0.3001,327.4499,0.3668,275,0.0088,-275,0.0323,0;0.5;0,0,327.0587,0.0,-940.0,40.0,1,1
149,327.8167,-5365.4266,-5037.6099,5366.3770,328.7671,0.3001,329.0672,0.3668,-275,0,275,0.0082,1;0;0,1,328.6844,0.0,-923.0,37.0,1,0
150,329.4340,-5367.0440,-5037.6099,5367.6609,330.0510,0.3001,330.3511,0.3668,-275,0.0088,275,0.017,0;0.5;0,1,329.9598,1.0,736.0,-8.0,1,1
151,330.7179,-5368.3278,-5037.6099,5369.0948,331.4849,0.3001,331.7850,0.3668,275,0.2,-275,0.2235,1;0;0,0,331.4022,1.0,726.0,-9.0,1,0
152,332.1518,-5369.7617,-5037.6099,5370.5454,332.9355,0.3001,333.2356,0.3668,-275,0.45,275,0.6421,0;0.5;0,1,332.8446,1.0,730.0,-28.0,1,1
153,333.6024,-5371.2123,-5037.6099,5371.9293,334.3194,0.3001,334.6195,0.3668,275,0,-275,0.0235,0;0.5;0,0,334.2283,0.0,-890.0,0.0,1,1
154,334.9863,-5372.5962,-5037.6099,5373.8467,336.2368,0.3001,336.5369,0.3668,275,0,-275,0.0029,1;0;0,0,336.1457,1.0,729.0,-30.0,1,0
155,336.9037,-5374.5137,-5037.6099,5375.3140,337.7041,0.3001,338.0042,0.3668,275,0.0088,-275,0.017,0;0.5;0,0,337.6132,0.0,-884.0,4.0,1,1
156,338.3710,-5375.9809,-5037.6099,5376.5645,338.9546,0.3001,339.2547,0.3668,-275,0.0167,275,0.0177,0;0.5;0,1,338.8635,1.0,725.0,-35.0,1,1
157,339.6215,-5377.2314,-5037.6099,5377.7650,340.1551,0.3001,340.4552,0.3668,275,0.0167,-275,0.0838,0;0.5;0,0,340.0723,0.0,-888.0,-16.0,1,1
158,340.8220,-5378.4319,-5037.6099,5379.2989,341.6890,0.3001,341.9891,0.3668,275,0,-275,0.0235,0;0.5;0,0,341.5982,0.0,-903.0,-8.0,1,1
159,342.3560,-5379.9659,-5037.6099,5380.5328,342.9229,0.3001,343.2230,0.3668,-275,0.0088,275,0.0759,0;0.5;0,1,342.8318,1.0,731.0,-31.0,1,1
160,343.5898,-5381.1997,-5037.6099,5381.8333,344.2234,0.3001,344.5235,0.3668,275,0.0088,-275,0.0117,0;0.5;0,0,344.1325,0.0,-890.0,2.0,1,1
161,344.8903,-5382.5002,-5037.6099,5382.9504,345.3405,0.3001,345.6406,0.3668,275,0.05,-275,0.0735,1;0;0,0,345.2577,1.0,759.0,-17.0,1,0
162,346.0074,-5383.6174,-5037.6099,5384.3843,346.7744,0.3001,347.0745,0.3668,-275,0.0167,275,0.2088,0;0.5;0,1,346.6917,1.0,744.0,-22.0,1,1
163,347.4414,-5385.0513,-5037.6099,5385.8683,348.2584,0.3001,348.5585,0.3668,275,0.45,-275,0.6421,0;0.5;0,0,348.1675,0.0,-883.0,-4.0,1,1
164,348.9253,-5386.5352,-5037.6099,5387.6523,350.0424,0.3001,350.3425,0.3668,275,0.0088,-275,0.017,1;0;0,0,349.9515,1.0,750.0,-9.0,1,0
165,350.7093,-5388.3193,-5037.6099,5388.9862,351.3763,0.3001,351.6764,0.3668,275,0.0167,-275,0.0249,0;0.5;0,0,351.2935,0.0,-903.0,22.0,1,1
166,352.0432,-5389.6531,-5037.6099,5390.3701,352.7602,0.3001,353.0603,0.3668,-275,0.0088,275,0.0323,0;0.5;0,1,352.6692,1.0,739.0,-26.0,1,1
167,353.4271,-5391.0370,-5037.6099,5392.2209,354.6109,0.3001,354.9111,0.3668,-275,0.0088,275,0.0117,1;0;0,1,354.5284,0.0,-923.0,19.0,1,0
168,355.2779,-5392.8878,-5037.6099,5393.6048,355.9948,0.3001,356.2949,0.3668,275,0.0088,-275,0.2009,0;0.5;0,0,355.9038,0.0,-927.0,35.0,1,1
169,356.6618,-5394.2717,-5037.6099,5395.3054,357.6955,0.3001,357.9956,0.3668,275,0,-275,0.0671,0;0.5;0,0,357.6127,0.0,-931.0,28.0,1,1
170,358.3625,-5395.9724,-5037.6099,5396.6393,359.0294,0.3001,359.3295,0.3668,-275,0.0088,275,0.017,0;0.5;0,1,358.9385,1.0,752.0,-15.0,1,1
171,359.6963,-5397.3063,-5037.6099,5397.9899,360.3799,0.3001,360.6801,0.3668,-275,0.2,275,1,0;0.5;0,1,360.2889,1.0,752.0,-11.0,1,1
172,361.0469,-5398.6568,-5037.6099,5399.3904,361.7805,0.3001,362.0806,0.3668,275,0.45,-275,0.5171,0;0.5;0,0,361.6894,0.0,-919.0,25.0,1,1
173,362.4474,-5400.0574,-5037.6099,5401.1078,363.4979,0.3001,363.7980,0.3668,275,0.2,-275,0.2235,0;0.5;0,0,363.4069,0.0,-934.0,30.0,1,1
174,364.1648,-5401.7747,-5037.6099,5402.3917,364.7817,0.3001,365.0818,0.3668,275,0.2,-275,0.2235,0;0.5;0,0,364.6907,0.0,-926.0,31.0,1,1
175,365.4487,-5403.0586,-5037.6099,5403.8422,366.2323,0.3001,366.5324,0.3668,275,0.45,-275,0.6421,0;0.5;0,0,366.1497,0.0,-913.0,14.0,1,1
176,366.8993,-5404.5092,-5037.6099,5404.9927,367.3828,0.3001,367.6829,0.3668,275,0.05,-275,0.6,0;0.5;0,0,367.3001,0.0,-918.0,30.0,1,1
177,368.0497,-5405.6596,-5037.6099,5406.2265,368.6166,0.3001,368.9167,0.3668,-275,0.05,275,0.6,0;0.5;0,1,368.5254,1.0,734.0,-20.0,1,1
178,369.2836,-5406.8935,-5037.6099,5408.0273,370.4174,0.3001,370.7175,0.3668,-275,0.05,275,0.0735,1;0;0,1,370.3345,0.0,-921.0,8.0,1,0
179,371.0843,-5408.6942,-5037.6099,5409.2444,371.6345,0.3001,371.9346,0.3668,-275,0.0167,275,0.0838,0;0.5;0,1,371.5519,1.0,743.0,-23.0,1,1
180,372.3014,-5409.9114,-5037.6099,5411.1285,373.5186,0.3001,373.8187,0.3668,-275,0.05,275,0.0582,0;0.5;0,1,373.4276,1.0,742.0,-15.0,1,1
181,374.1855,-5411.7955,-5037.6099,5412.3457,374.7358,0.3001,375.0359,0.3668,-275,0.2,275,1,0;0.5;0,1,374.6531,1.0,737.0,-28.0,1,1
182,375.4027,-5413.0126,-5037.6099,5413.6962,376.0863,0.3001,376.3864,0.3668,275,0.2,-275,0.2671,0;0.5;0,0,376.0036,0.0,-906.0,4.0,1,1
183,376.7533,-5414.3632,-5037.6099,5414.9301,377.3202,0.3001,377.6203,0.3668,275,0,-275,0.1921,0;0.5;0,0,377.2375,0.0,-910.0,-4.0,1,1
184,377.9871,-5415.5970,-5037.6099,5416.0472,378.4373,0.3001,378.7374,0.3668,275,0,-275,0.1921,0;0.5;0,0,378.3545,0.0,-932.0,18.0,1,1
185,379.1042,-5416.7141,-5037.6099,5417.3311,379.7211,0.3001,380.0212,0.3668,-275,0,275,0.0671,0;0.5;0,1,379.6300,1.0,741.0,-18.0,1,1
186,380.3881,-5417.9980,-5037.6099,5420.3823,382.7724,0.3001,383.0725,0.3668,275,0.0088,-275,0.0098,1;0;0,0,382.6896,1.0,749.0,-19.0,1,0
187,383.4393,-5421.0492,-5037.6099,5421.6161,384.0062,0.3001,384.3063,0.3668,275,0.05,-275,0.1171,0;0.5;0,0,383.9152,0.0,-933.0,20.0,1,1
188,384.6731,-5422.2831,-5037.6099,5422.9333,385.3234,0.3001,385.6235,0.3668,275,0,-275,0.0235,0;0.5;0,0,385.2324,0.0,-897.0,-25.0,1,1
189,385.9903,-5423.6003,-5037.6099,5424.4506,386.8407,0.3001,387.1408,0.3668,275,0.0088,-275,0.0117,0;0.5;0,0,386.7497,0.0,-912.0,-9.0,1,1
190,387.5076,-5425.1175,-5037.6099,5425.9679,388.3580,0.3001,388.6581,0.3668,275,0.0088,-275,0.017,1;0;0,0,388.2669,1.0,733.0,-23.0,1,0
191,389.0249,-5426.6348,-5037.6099,5427.0683,389.4584,0.3001,389.7585,0.3668,275,0.45,-275,0.4735,0;0.5;0,0,389.3757,0.0,-896.0,-23.0,1,1
192,390.1254,-5427.7353,-5037.6099,5428.3689,390.7589,0.3001,391.0591,0.3668,275,0.0167,-275,0.0402,0;0.5;0,0,390.6679,0.0,-914.0,-3.0,1,1
193,391.4259,-5429.0358,-5037.6099,5429.5527,391.9428,0.3001,392.2429,0.3668,-275,0.0088,275,0.2009,0;0.5;0,1,391.8518,1.0,748.0,-14.0,1,1
194,392.6097,-5430.2196,-5037.6099,5430.6365,393.0265,0.3001,393.3267,0.3668,-275,0,275,0.1921,0;0.5;0,1,392.9354,1.0,749.0,-13.0,1,1
195,393.6935,-5431.3034,-5037.6099,5433.6043,395.9944,0.3001,396.2945,0.3668,275,0.0088,-275,0.0098,1;0;0,0,395.9034,1.0,759.0,-11.0,1,0
196,396.6613,-5434.2713,-5037.6099,5434.7715,397.1615,0.3001,397.4617,0.3668,275,0.2,-275,0.2082,0;0.5;0,0,397.0788,0.0,-892.0,-20.0,1,1
197,397.8285,-5435.4384,-5037.6099,5436.9557,399.3458,0.3001,399.6459,0.3668,-275,0,275,0.0082,1;0;0,1,399.2631,0.0,-894.0,-17.0,1,0
198,400.0127,-5437.6226,-5037.6099,5438.1728,400.5629,0.3001,400.8630,0.3668,-275,0.05,275,0.0582,0;0.5;0,1,400.4801,1.0,754.0,-14.0,1,1
199,401.2299,-5438.8398,-5037.6099,5439.5401,401.9301,0.3001,402.2303,0.3668,-275,0.2,275,0.2235,0;0.5;0,1,401.8392,1.0,761.0,-11.0,1,1
200,402.5971,-5440.2070,-5037.6099,5440.9406,403.3307,0.3001,403.6308,0.3668,275,0.2,-275,0.3921,0;0.5;0,0,403.2398,0.0,-883.0,-37.0,1,1
201,403.9976,-5441.6076,-5037.6099,5442.0744,404.4645,0.3001,404.7646,0.3668,-275,0,275,0.1921,0;0.5;0,1,404.3735,1.0,752.0,-16.0,1,1
202,405.1314,-5442.7414,-5037.6099,5443.1249,405.5149,0.3001,405.8151,0.3668,-275,0.2,275,1,1;0;0,1,405.4239,0.0,-891.0,-23.0,1,0
203,406.1819,-5443.7918,-5037.6099,5444.5421,406.9322,0.3001,407.2323,0.3668,-275,0.0167,275,0.0196,0;0.5;0,1,406.8412,1.0,731.0,-26.0,1,1
204,407.5991,-5445.2090,-5037.6099,5446.0761,408.4661,0.3001,408.7663,0.3668,275,0.0088,-275,0.0323,0;0.5;0,0,408.3752,0.0,-881.0,-12.0,1,1
205,409.1331,-5446.7430,-5037.6099,5447.3599,409.7500,0.3001,410.0501,0.3668,275,0.0088,-275,0.0117,1;0;0,0,409.6673,1.0,736.0,-23.0,1,0
206,410.4169,-5448.0268,-5037.6099,5448.2269,410.6170,0.3001,410.9171,0.3668,-275,0.05,275,0.0735,1;0;0,1,410.5260,0.0,-893.0,1.0,1,0
207,411.2839,-5448.8939,-5037.6099,5449.7109,412.1009,0.3001,412.4011,0.3668,-275,0.45,275,0.4735,0;0.5;0,1,412.0098,1.0,749.0,-11.0,1,1
208,412.7679,-5450.3778,-5037.6099,5450.8947,413.2848,0.3001,413.5849,0.3668,275,0.05,-275,0.6,0;0.5;0,0,413.2020,0.0,-879.0,-7.0,1,1
209,413.9517,-5451.5616,-5037.6099,5452.7454,415.1355,0.3001,415.4356,0.3668,275,0,-275,0.001,1;0;0,0,415.0444,1.0,749.0,-13.0,1,0
210,415.8024,-5453.4124,-5037.6099,5453.5458,415.9358,0.3001,416.2359,0.3668,275,0.0167,-275,0.0177,0;0.5;0,0,415.8530,0.0,-868.0,-35.0,1,1
211,416.6028,-5454.2127,-5037.6099,5454.4461,416.8362,0.3001,417.1363,0.3668,-275,0.0167,275,0.0249,0;0.5;0,1,416.7535,1.0,741.0,-18.0,1,1
212,417.5031,-5455.1131,-5037.6099,5455.3465,417.7366,0.3001,418.0367,0.3668,-275,0,275,0.1921,1;0;0,1,417.6455,0.0,-879.0,-3.0,1,0
213,418.4035,-5456.0134,-5037.6099,5456.6303,419.0204,0.3001,419.3205,0.3668,-275,0.05,275,0.0735,0;0.5;0,1,418.9293,1.0,744.0,-11.0,1,1
214,419.6873,-5457.2973,-5037.6099,5457.8975,420.2876,0.3001,420.5877,0.3668,275,0.2,-275,1,0;0.5;0,0,420.2050,0.0,-855.0,-47.0,1,1
215,420.9545,-5458.5645,-5037.6099,5459.1480,421.5381,0.3001,421.8382,0.3668,-275,0.45,275,0.4735,0;0.5;0,1,421.4554,1.0,746.0,-11.0,1,1
216,422.2050,-5459.8150,-5037.6099,5461.2489,423.6390,0.3001,423.9391,0.3668,-275,0.0088,275,0.0098,1;0;0,1,423.5479,0.0,-884.0,-23.0,1,0
217,424.3059,-5461.9158,-5037.6099,5462.5661,424.9562,0.3001,425.2563,0.3668,-275,0.0088,275,0.0117,0;0.5;0,1,424.8734,1.0,715.0,-31.0,1,1
218,425.6231,-5463.2330,-5037.6099,5463.8666,426.2567,0.3001,426.5568,0.3668,-275,0.2,275,0.3921,0;0.5;0,1,426.1740,1.0,732.0,-26.0,1,1
219,426.9236,-5464.5335,-5037.6099,5465.0838,427.4738,0.3001,427.7740,0.3668,-275,0.0088,275,0.0759,0;0.5;0,1,427.3911,1.0,732.0,-25.0,1,1
220,428.1408,-5465.7507,-5037.6099,5466.5510,428.9411,0.3001,429.2412,0.3668,275,0.0167,-275,0.0177,1;0;0,0,428.8585,1.0,731.0,-24.0,1,0
221,429.6080,-5467.2180,-5037.6099,5467.3514,429.7414,0.3001,430.0416,0.3668,275,0.05,-275,0.0529,0;0.5;0,0,429.6587,0.0,-863.0,-31.0,1,1
222,430.4084,-5468.0183,-5037.6099,5468.2350,430.6251,0.3001,430.9252,0.3668,275,0.45,-275,0.4582,1;0;0,0,430.5342,1.0,741.0,-16.0,1,0
223,431.2921,-5468.9020,-5037.6099,5469.4856,431.8756,0.3001,432.1757,0.3668,-275,0,275,0.001,1;0;0,1,431.7930,0.0,-884.0,-6.0,1,0
224,432.5426,-5470.1525,-5037.6099,5470.8528,433.2428,0.3001,433.5430,0.3668,275,0.0167,-275,0.2088,0;0.5;0,0,433.1519,0.0,-879.0,-14.0,1,1
225,433.9098,-5471.5197,-5037.6099,5472.2033,434.5934,0.3001,434.8935,0.3668,-275,0.05,275,0.0529,1;0;0,1,434.5107,0.0,-883.0,-14.0,1,0
226,435.2603,-5472.8703,-5037.6099,5473.2037,435.5938,0.3001,435.8939,0.3668,275,0.0167,-275,0.0838,1;0;0,0,435.5027,1.0,734.0,-23.0,1,0
227,436.2607,-5473.8707,-5037.6099,5474.7877,437.1778,0.3001,437.4779,0.3668,-275,0.05,275,0.0529,1;0;0,1,437.0867,0.0,-884.0,-6.0,1,0
228,437.8447,-5475.4546,-5037.6099,5476.4717,438.8618,0.3001,439.1619,0.3668,-275,0.45,275,0.4735,1;0;0,1,438.7708,0.0,-759.0,-45.0,1,0
229,439.5287,-5477.1387,-5037.6099,5477.9557,440.3457,0.3001,440.6459,0.3668,-275,0.2,275,0.3921,0;0.5;0,1,440.2547,1.0,688.0,-63.0,1,1
230,441.0127,-5478.6226,-5037.6099,5479.3062,441.6963,0.3001,441.9964,0.3668,-275,0.2,275,0.2082,0;0.5;0,1,441.6135,1.0,711.0,-44.0,1,1
231,442.3632,-5479.9731,-5037.6099,5480.5400,442.9301,0.3001,443.2302,0.3668,-275,0.05,275,0.1171,0;0.5;0,1,442.8392,1.0,726.0,-41.0,1,1
232,443.5970,-5481.2070,-5037.6099,5481.7739,444.1639,0.3001,444.4641,0.3668,275,0.0167,-275,0.0402,1;0;0,0,444.0812,1.0,719.0,-45.0,1,0
233,444.8309,-5482.4408,-5037.6099,5483.1911,445.5812,0.3001,445.8813,0.3668,275,0,-275,0.0671,0;0.5;0,0,445.4985,0.0,-780.0,-81.0,1,1
234,446.2481,-5483.8581,-5037.6099,5484.5583,446.9484,0.3001,447.2485,0.3668,-275,0.45,275,0.6421,0;0.5;0,1,446.8574,1.0,725.0,-41.0,1,1
235,447.6153,-5485.2253,-5037.6099,5485.7755,448.1656,0.3001,448.4657,0.3668,275,0.2,-275,1,0;0.5;0,0,448.0828,0.0,-788.0,-66.0,1,1
236,448.8325,-5486.4424,-5037.6099,5487.2761,449.6662,0.3001,449.9663,0.3668,275,0.2,-275,0.3921,1;0;0,0,449.5836,1.0,728.0,-38.0,1,0
237,450.3331,-5487.9430,-5037.6099,5488.5933,450.9834,0.3001,451.2835,0.3668,-275,0.05,275,0.0582,1;0;0,1,450.9006,0.0,-813.0,-64.0,1,0
238,451.6503,-5489.2602,-5037.6099,5489.8438,452.2339,0.3001,452.5340,0.3668,-275,0.2,275,0.3921,0;0.5;0,1,452.1511,1.0,725.0,-36.0,1,1
239,452.9008,-5490.5108,-5037.6099,5490.9776,453.3677,0.3001,453.6678,0.3668,-275,0,275,0.0235,1;0;0,1,453.2849,0.0,-814.0,-66.0,1,0
240,454.0346,-5491.6445,-5037.6099,5492.0947,454.4848,0.3001,454.7849,0.3668,-275,0.0167,275,0.0402,1;0;0,1,454.3937,0.0,-839.0,-47.0,1,0
241,455.1517,-5492.7617,-5037.6099,5493.9455,456.3355,0.3001,456.6357,0.3668,-275,0.2,275,0.3921,0;0.5;0,1,456.2447,1.0,707.0,-51.0,1,1
242,457.0025,-5494.6124,-5037.6099,5495.2460,457.6361,0.3001,457.9362,0.3668,275,0.0167,-275,0.2088,0;0.5;0,0,457.5534,0.0,-816.0,-50.0,1,1
243,458.3030,-5495.9129,-5037.6099,5496.8800,459.2701,0.3001,459.5702,0.3668,-275,0.0088,275,0.017,0;0.5;0,1,459.1874,1.0,709.0,-49.0,1,1
244,459.9370,-5497.5469,-5037.6099,5497.7970,460.1871,0.3001,460.4872,0.3668,-275,0,275,0.0671,1;0;0,1,460.1044,0.0,-830.0,-44.0,1,0
245,460.8540,-5498.4640,-5037.6099,5498.6474,461.0375,0.3001,461.3376,0.3668,-275,0.0088,275,0.0323,0;0.5;0,1,460.9465,1.0,710.0,-46.0,1,1
246,461.7044,-5499.3143,-5037.6099,5499.8645,462.2546,0.3001,462.5547,0.3668,275,0.0088,-275,0.0323,0;0.5;0,0,462.1637,0.0,-828.0,-50.0,1,1
247,462.9216,-5500.5315,-5037.6099,5501.1151,463.5051,0.3001,463.8052,0.3668,275,0.05,-275,0.6,0;0.5;0,0,463.4225,0.0,-827.0,-47.0,1,1
248,464.1721,-5501.7820,-5037.6099,5502.2822,464.6723,0.3001,464.9724,0.3668,-275,0,275,0.1921,0;0.5;0,1,464.5896,1.0,715.0,-46.0,1,1
249,465.3392,-5502.9491,-5037.6099,5503.3826,465.7727,0.3001,466.0728,0.3668,-275,0.0088,275,0.0759,0;0.5;0,1,465.6900,1.0,721.0,-42.0,1,1
250,466.4396,-5504.0496,-5037.6099,5504.7999,467.1900,0.3001,467.4901,0.3668,275,0.0167,-275,0.0177,1;0;0,0,467.1072,1.0,717.0,-42.0,1,0
251,467.8569,-5505.4668,-5037.6099,5506.4672,468.8573,0.3001,469.1574,0.0000,-275,0.45,275,0.5171,1;0;0,1,468.7661,0.0,-815.0,-42.0,1,0
252,469.1574,-5506.7673,-5037.6099,5507.1842,469.5743,0.3001,469.8744,0.3668,-275,0.0167,275,0.0196,0;0.5;0,1,469.4916,1.0,715.0,-45.0,1,1
253,470.2412,-5507.8511,-5037.6099,5509.0516,471.4417,0.3001,471.7418,0.3668,-275,0,275,0.0082,0;0.5;0,1,471.3508,1.0,715.0,-40.0,1,1
254,472.1086,-5509.7185,-5037.6099,5510.3688,472.7589,0.3001,473.0590,0.3668,275,0.2,-275,0.2082,1;0;0,0,472.6679,1.0,714.0,-42.0,1,0
255,473.4258,-5511.0357,-5037.6099,5511.5526,473.9427,0.3001,474.2428,0.3668,275,0.0088,-275,0.2009,0;0.5;0,0,473.8599,0.0,-819.0,-40.0,1,1
256,474.6096,-5512.2196,-5037.6099,5513.5868,475.9768,0.3001,476.2770,0.3668,-275,0.05,275,0.0529,0;0.5;0,1,475.8942,1.0,697.0,-45.0,1,1
257,476.6438,-5514.2537,-5037.6099,5515.2708,477.6609,0.3001,477.9610,0.3668,-275,0.0088,275,0.017,1;0;0,1,477.5698,0.0,-714.0,-119.0,1,0
258,478.3278,-5515.9377,-5037.6099,5516.4546,478.8447,0.3001,479.1448,0.3668,-275,0.2,275,0.2671,0;0.5;0,1,478.7536,1.0,687.0,-63.0,1,1
259,479.5116,-5517.1215,-5037.6099,5517.7385,480.1285,0.3001,480.4287,0.3668,-275,0.05,275,0.1171,0;0.5;0,1,480.0375,1.0,692.0,-61.0,1,1
260,480.7955,-5518.4054,-5037.6099,5518.9890,481.3790,0.3001,481.6792,0.3668,275,0,-275,0.0671,0;0.5;0,0,481.2963,0.0,-725.0,-99.0,1,1
261,482.0460,-5519.6559,-5037.6099,5520.3729,482.7629,0.3001,483.0631,0.3668,-275,0.45,275,0.5171,0;0.5;0,1,482.6802,1.0,693.0,-60.0,1,1
262,483.4299,-5521.0398,-5037.6099,5521.6734,484.0635,0.3001,484.3636,0.3668,275,0.45,-275,0.4582,0;0.5;0,0,483.9808,0.0,-751.0,-102.0,1,1
263,484.7304,-5522.3403,-5037.6099,5523.1406,485.5307,0.3001,485.8308,0.3668,-275,0.0088,275,0.0323,0;0.5;0,1,485.4481,1.0,696.0,-60.0,1,1
264,486.1977,-5523.8076,-5037.6099,5524.5412,486.9313,0.3001,487.2314,0.3668,-275,0.05,275,0.0529,1;0;0,1,486.8485,0.0,-759.0,-91.0,1,0
265,487.5982,-5525.2082,-5037.6099,5526.3753,488.7654,0.3001,489.0655,0.3668,-275,0.2,275,0.2671,0;0.5;0,1,488.6744,1.0,696.0,-60.0,1,1
266,489.4323,-5527.0422,-5037.6099,5527.9593,490.3493,0.3001,490.6495,0.3668,-275,0.2,275,0.3921,0;0.5;0,1,490.2584,1.0,704.0,-54.0,1,1
267,491.0163,-5528.6262,-5037.6099,5529.6766,492.0667,0.3001,492.3668,0.3668,-275,0,275,0.0029,0;0.5;0,1,491.9758,1.0,706.0,-52.0,1,1
268,492.7336,-5530.3436,-5037.6099,5531.0605,493.4506,0.3001,493.7507,0.3668,-275,0,275,0.0029,0;0.5;0,1,493.3678,1.0,708.0,-51.0,1,1
269,494.1175,-5531.7275,-5037.6099,5531.9609,494.3510,0.3001,494.6511,0.3668,-275,0,275,0.1921,0;0.5;0,1,494.2682,1.0,710.0,-50.0,1,1
270,495.0179,-5532.6278,-5037.6099,5534.0451,496.4351,0.3001,496.7353,0.3668,-275,0.0088,275,0.0117,0;0.5;0,1,496.3523,1.0,711.0,-46.0,1,1
271,497.1021,-5534.7120,-5037.6099,5535.3789,497.7690,0.3001,498.0691,0.3668,275,0.45,-275,0.6421,0;0.5;0,0,497.6780,0.0,-741.0,-100.0,1,1
272,498.4360,-5536.0459,-5037.6099,5536.8295,499.2196,0.3001,499.5197,0.3668,-275,0.0088,275,0.017,1;0;0,1,499.1286,0.0,-765.0,-87.0,1,0
273,499.8865,-5537.4965,-5037.6099,5538.1467,500.5368,0.3001,500.8369,0.3668,-275,0.0167,275,0.0838,0;0.5;0,1,500.4542,1.0,707.0,-49.0,1,1
274,501.2037,-5538.8137,-5037.6099,5539.3639,501.7540,0.3001,502.0541,0.3668,-275,0,275,0.001,0;0.5;0,1,501.6629,1.0,711.0,-47.0,1,1
275,502.4209,-5540.0308,-5037.6099,5540.1642,502.5543,0.3001,502.8544,0.3668,275,0.0167,-275,0.0838,1;0;0,0,502.4715,1.0,711.0,-46.0,1,0
276,503.2212,-5540.8312,-5037.6099,5541.4481,503.8381,0.3001,504.1383,0.3668,275,0.05,-275,0.0529,0;0.5;0,0,503.7470,0.0,-784.0,-77.0,1,1
277,504.5051,-5542.1150,-5037.6099,5542.8820,505.2721,0.3001,505.5722,0.0000,-275,0.05,275,0.6,0;0.5;0,1,505.1809,1.0,720.0,-42.0,1,1
278,505.5722,-5543.1821,-5037.6099,5543.5989,505.9890,0.3001,506.2891,0.3668,275,0.2,-275,0.2082,1;0;0,0,505.8980,1.0,712.0,-45.0,1,0
279,506.6560,-5544.2659,-5037.6099,5545.5831,507.9732,0.3001,508.2733,0.3668,275,0.2,-275,0.2671,0;0.5;0,0,507.8820,0.0,-790.0,-62.0,1,1
280,508.6401,-5546.2500,-5037.6099,5546.9336,509.3237,0.3001,509.6238,0.3668,275,0.0167,-275,0.2088,0;0.5;0,0,509.2327,0.0,-788.0,-66.0,1,1
281,509.9906,-5547.6006,-5037.6099,5548.1841,510.5742,0.3001,510.8743,0.3668,-275,0.05,275,0.6,0;0.5;0,1,510.4915,1.0,725.0,-40.0,1,1
282,511.2411,-5548.8511,-5037.6099,5549.6014,511.9914,0.3001,512.2916,0.3668,-275,0.0167,275,0.0196,1;0;0,1,511.9086,0.0,-790.0,-67.0,1,0
283,512.6584,-5550.2683,-5037.6099,5550.3517,512.7418,0.3001,513.0419,0.3668,-275,0.05,275,0.0582,0;0.5;0,1,512.6590,1.0,722.0,-41.0,1,1
284,513.4087,-5551.0186,-5037.6099,5552.8027,515.1927,0.3001,515.4929,0.3668,-275,0.0088,275,0.0098,0;0.5;0,1,515.1017,1.0,735.0,-34.0,1,1
285,515.8597,-5553.4696,-5037.6099,5554.2533,516.6433,0.3001,516.9435,0.3668,-275,0.0167,275,0.0177,0;0.5;0,1,516.5522,1.0,735.0,-35.0,1,1
286,517.3103,-5554.9202,-5037.6099,5555.7539,518.1439,0.3001,518.4441,0.3668,275,0.05,-275,0.0582,0;0.5;0,0,518.0529,0.0,-802.0,-64.0,1,1
287,518.8109,-5556.4208,-5037.6099,5556.9544,519.3444,0.3001,519.6445,0.3668,275,0.0088,-275,0.017,1;0;0,0,519.2534,1.0,735.0,-33.0,1,0
288,520.0114,-5557.6213,-5037.6099,5558.6050,520.9951,0.3001,521.2952,0.3668,275,0,-275,0.0082,1;0;0,0,520.9040,1.0,722.0,-41.0,1,0
289,521.6620,-5559.2720,-5037.6099,5560.1390,522.5291,0.3001,522.8292,0.3668,-275,0.0167,275,0.0249,0;0.5;0,1,522.4463,1.0,744.0,-31.0,1,1
290,523.1960,-5560.8059,-5037.6099,5561.6396,524.0297,0.3001,524.3298,0.3668,275,0.2,-275,0.2082,0;0.5;0,0,523.9386,0.0,-831.0,-42.0,1,1
291,524.6966,-5562.3065,-5037.6099,5565.2077,527.5978,0.3001,527.8979,0.3668,-275,0.2,275,0.2671,0;0.5;0,1,527.5150,1.0,836.0,44.0,1,1
292,528.2647,-5565.8746,-5037.6099,5566.5416,528.9316,0.3001,529.2318,0.3668,275,0.45,-275,1,0;0.5;0,0,528.8407,0.0,-697.0,-149.0,1,1
293,529.5986,-5567.2085,-5037.6099,5567.9755,530.3656,0.3001,530.6657,0.3668,275,0,-275,0.0235,0;0.5;0,0,530.2745,0.0,-748.0,-79.0,1,1
294,531.0325,-5568.6424,-5037.6099,5569.2093,531.5994,0.3001,531.8995,0.3668,275,0.05,-275,0.2421,0;0.5;0,0,531.5165,0.0,-772.0,-77.0,1,1
295,532.2663,-5569.8763,-5037.6099,5570.4265,532.8166,0.3001,533.1167,0.3668,275,0.0167,-275,0.0177,0;0.5;0,0,532.7338,0.0,-803.0,-90.0,1,1
296,533.4835,-5571.0934,-5037.6099,5571.5269,533.9170,0.3001,534.2171,0.3668,-275,0.0167,275,0.0249,1;0;0,1,533.8342,0.0,-804.0,-104.0,1,0
297,534.5839,-5572.1939,-5037.6099,5572.9275,535.3176,0.3001,535.6177,0.3668,275,0,-275,0.1921,0;0.5;0,0,535.2348,0.0,-756.0,-86.0,1,1
298,535.9845,-5573.5944,-5037.6099,5574.7782,537.1683,0.3001,537.4684,0.3668,275,0,-275,0.0082,0;0.5;0,0,537.0773,0.0,-750.0,-108.0,1,1
299,537.8353,-5575.4452,-5037.6099,5576.3289,538.7189,0.3001,539.0191,0.3668,-275,0,275,0.0029,1;0;0,1,538.6278,0.0,-708.0,-125.0,1,0
300,539.3859,-5576.9958,-5037.6099,5577.5127,539.9028,0.3001,540.2029,0.3668,-275,0.45,275,0.4582,0;0.5;0,1,539.8118,1.0,790.0,-42.0,1,1
301,540.5697,-5578.1796,-5037.6099,5578.7632,541.1533,0.3001,541.4534,0.3668,275,0.45,-275,0.4735,0;0.5;0,0,541.0706,0.0,-750.0,-105.0,1,1
302,541.8202,-5579.4301,-5037.6099,5579.9804,542.3704,0.3001,542.6705,0.3668,-275,0.0167,275,0.2088,0;0.5;0,1,542.2795,1.0,794.0,-47.0,1,1
303,543.0374,-5580.6473,-5037.6099,5581.7811,544.1712,0.3001,544.4713,0.3668,-275,0.0167,275,0.0838,0;0.5;0,1,544.0885,1.0,792.0,-40.0,1,1
304,544.8381,-5582.4480,-5037.6099,5583.1983,545.5884,0.3001,545.8885,0.3668,-275,0.0088,275,0.0098,1;0;0,1,545.5057,0.0,-769.0,-80.0,1,0
305,546.2553,-5583.8653,-5037.6099,5584.3154,546.7055,0.3001,547.0056,0.3668,-275,0.0167,275,0.0177,0;0.5;0,1,546.6145,1.0,772.0,-55.0,1,1
306,547.3725,-5584.9824,-5037.6099,5585.1491,547.5392,0.3001,547.8393,0.3668,-275,0.45,275,0.6421,0;0.5;0,1,547.4564,1.0,764.0,-54.0,1,1
307,548.2061,-5585.8160,-5037.6099,5586.3496,548.7397,0.3001,549.0398,0.3668,-275,0.0088,275,0.017,0;0.5;0,1,548.6568,1.0,758.0,-52.0,1,1
308,549.4066,-5587.0165,-5037.6099,5587.6501,550.0402,0.3001,550.3403,0.3668,-275,0.0088,275,0.2009,0;0.5;0,1,549.9492,1.0,773.0,-40.0,1,1
309,550.7071,-5588.3171,-5037.6099,5589.2008,551.5908,0.3001,551.8909,0.3668,-275,0.0088,275,0.0117,0;0.5;0,1,551.5080,1.0,769.0,-37.0,1,1
310,552.2578,-5589.8677,-5037.6099,5590.6680,553.0581,0.3001,553.3582,0.3668,275,0.0167,-275,0.0249,0;0.5;0,0,552.9754,0.0,-749.0,-109.0,1,1
311,553.7250,-5591.3350,-5037.6099,5592.1853,554.5754,0.3001,554.8755,0.3668,275,0.05,-275,0.0735,1;0;0,0,554.4926,1.0,765.0,-42.0,1,0
312,555.2423,-5592.8522,-5037.6099,5593.0190,555.4090,0.3001,555.7092,0.3668,-275,0,275,0.1921,1;0;0,1,555.3263,0.0,-764.0,-95.0,1,0
313,556.0760,-5593.6859,-5037.6099,5594.2028,556.5929,0.3001,556.8930,0.3668,-275,0.2,275,0.75,0;0.5;0,1,556.5017,1.0,768.0,-41.0,1,1
314,557.2598,-5594.8697,-5037.6099,5595.8034,558.1935,0.3001,558.4936,0.3668,275,0.0167,-275,0.2088,0;0.5;0,0,558.1024,0.0,-773.0,-98.0,1,1
315,558.8604,-5596.4704,-5037.6099,5596.9872,559.3773,0.3001,559.6774,0.3668,-275,0.2,275,0.75,0;0.5;0,1,559.2947,1.0,770.0,-42.0,1,1
316,560.0443,-5597.6542,-5037.6099,5598.3044,560.6945,0.3001,560.9946,0.3668,275,0,-275,0.1921,0;0.5;0,0,560.6035,0.0,-761.0,-95.0,1,1
317,561.3615,-5598.9714,-5037.6099,5599.6216,562.0117,0.3001,562.3118,0.3668,-275,0.0167,275,0.0196,0;0.5;0,1,561.9206,1.0,786.0,-29.0,1,1
318,562.6787,-5600.2886,-5037.6099,5601.2390,563.6290,0.3001,563.9292,0.3668,-275,0.05,275,0.2421,1;0;0,1,563.5463,0.0,-753.0,-84.0,1,0
319,564.2960,-5601.9059,-5037.6099,5602.2894,564.6795,0.3001,564.9796,0.3668,-275,0.45,275,1,0;0.5;0,1,564.5885,1.0,782.0,-32.0,1,1
320,565.3464,-5602.9563,-5037.6099,5604.3736,566.7636,0.3001,567.0638,0.3668,-275,0.45,275,0.6421,0;0.5;0,1,566.6809,1.0,781.0,-30.0,1,1
321,567.4306,-5605.0405,-5037.6099,5605.7074,568.0975,0.3001,568.3976,0.3668,275,0.05,-275,0.6,0;0.5;0,0,568.0066,0.0,-778.0,-67.0,1,1
322,568.7644,-5606.3744,-5037.6099,5606.9246,569.3147,0.3001,569.6148,0.3668,-275,0.2,275,0.75,0;0.5;0,1,569.2319,1.0,791.0,-26.0,1,1
323,569.9816,-5607.5915,-5037.6099,5609.7257,572.1158,0.3001,572.4159,0.3668,275,0.05,-275,0.1171,0;0.5;0,0,572.0249,0.0,-789.0,-65.0,1,1
324,572.7827,-5610.3927,-5037.6099,5611.2764,573.6664,0.3001,573.9666,0.3668,275,0.0088,-275,0.0323,1;0;0,0,573.5753,1.0,797.0,-18.0,1,0
325,574.3334,-5611.9433,-5037.6099,5612.7436,575.1337,0.3001,575.4338,0.3668,275,0.0167,-275,0.0196,0;0.5;0,0,575.0510,0.0,-774.0,-68.0,1,1
326,575.8006,-5613.4106,-5037.6099,5614.0775,576.4676,0.3001,576.7677,0.3668,275,0.45,-275,0.4735,0;0.5;0,0,576.3764,0.0,-787.0,-67.0,1,1
327,577.1345,-5614.7444,-5037.6099,5617.0120,579.4021,0.3001,579.7022,0.3668,275,0.45,-275,0.5171,0;0.5;0,0,579.3194,0.0,-782.0,-62.0,1,1
328,580.0690,-5617.6790,-5037.6099,5618.5626,580.9527,0.3001,581.2528,0.3668,-275,0.2,275,0.2082,1;0;0,1,580.8700,0.0,-803.0,-54.0,1,0
329,581.6197,-5619.2296,-5037.6099,5620.0132,582.4033,0.3001,582.7034,0.3668,275,0.2,-275,1,0;0.5;0,0,582.3123,0.0,-818.0,-49.0,1,1
330,583.0702,-5620.6802,-5037.6099,5621.6639,584.0540,0.3001,584.3541,0.3668,275,0.0167,-275,0.0402,0;0.5;0,0,583.9630,0.0,-830.0,-54.0,1,1
331,584.7209,-5622.3308,-5037.6099,5623.6981,586.0881,0.3001,586.3883,0.3668,275,0.0088,-275,0.0098,0;0.5;0,0,586.0055,0.0,-825.0,-61.0,1,1
332,586.7551,-5624.3650,-5037.6099,5625.0153,587.4053,0.3001,587.7055,0.3668,275,0,-275,0.0082,0;0.5;0,0,587.3226,0.0,-810.0,-62.0,1,1
333,588.0723,-5625.6822,-5037.6099,5626.9827,589.3728,0.3001,589.6729,0.3668,-275,0.05,275,0.0735,0;0.5;0,1,589.2900,1.0,796.0,-21.0,1,1
334,590.0397,-5627.6497,-5037.6099,5628.4000,590.7900,0.3001,591.0902,0.3668,275,0.2,-275,1,0;0.5;0,0,590.7073,0.0,-808.0,-67.0,1,1
335,591.4570,-5629.0669,-5037.6099,5629.7338,592.1239,0.3001,592.4240,0.3668,-275,0.2,275,0.75,0;0.5;0,1,592.0412,1.0,808.0,-28.0,1,1
336,592.7908,-5630.4008,-5037.6099,5631.0344,593.4244,0.3001,593.7246,0.3668,-275,0.45,275,0.4582,1;0;0,1,593.3417,0.0,-842.0,-72.0,1,0
337,594.0914,-5631.7013,-5037.6099,5632.2182,594.6083,0.3001,594.9084,0.3668,-275,0.2,275,1,0;0.5;0,1,594.5255,1.0,814.0,-25.0,1,1
338,595.2752,-5632.8851,-5037.6099,5634.3357,596.7258,0.3001,597.0259,0.3668,-275,0.2,275,0.2082,1;0;0,1,596.6431,0.0,-845.0,-63.0,1,0
339,597.3927,-5635.0026,-5037.6099,5635.7196,598.1097,0.3001,598.4098,0.3668,275,0.05,-275,0.0582,1;0;0,0,598.0187,1.0,783.0,-38.0,1,0
340,598.7766,-5636.3865,-5037.6099,5637.0868,599.4769,0.3001,599.7770,0.3668,-275,0.2,275,0.2235,1;0;0,1,599.3942,0.0,-822.0,-85.0,1,0
341,600.1438,-5637.7538,-5037.6099,5638.3707,600.7607,0.3001,601.0609,0.3668,275,0.2,-275,1,0;0.5;0,0,600.6698,0.0,-828.0,-79.0,1,1
342,601.4277,-5639.0376,-5037.6099,5641.4553,603.8453,0.3001,604.1454,0.3668,-275,0.0167,275,0.0402,1;0;0,1,603.7542,0.0,-818.0,-71.0,1,0
343,604.5123,-5642.1222,-5037.6099,5642.7058,605.0958,0.3001,605.3960,0.3668,275,0.2,-275,0.2671,1;0;0,0,605.0047,1.0,773.0,-40.0,1,0
344,605.7628,-5643.3727,-5037.6099,5644.0730,606.4631,0.3001,606.7632,0.3668,-275,0.0088,275,0.0759,0;0.5;0,1,606.3720,1.0,735.0,-53.0,1,1
345,607.1300,-5644.7399,-5037.6099,5645.2901,607.6802,0.3001,607.9803,0.3668,-275,0.0167,275,0.0838,1;0;0,1,607.5892,0.0,-835.0,-65.0,1,0
346,608.3471,-5645.9571,-5037.6099,5646.6240,609.0141,0.3001,609.3142,0.3668,-275,0.2,275,0.3921,1;0;0,1,608.9313,0.0,-817.0,-66.0,1,0
347,609.6810,-5647.2909,-5037.6099,5647.4243,609.8144,0.3001,610.1145,0.3668,-275,0.05,275,0.0529,1;0;0,1,609.7234,0.0,-783.0,-54.0,1,0
348,610.4813,-5648.0913,-5037.6099,5648.1913,610.5814,0.3001,610.8815,0.3668,-275,0.05,275,0.0529,0;0.5;0,1,610.4903,1.0,814.0,-27.0,1,1
349,611.2483,-5648.8583,-5037.6099,5649.0250,611.4151,0.3001,611.7152,0.3668,275,0.0167,-275,0.0196,1;0;0,0,611.3240,1.0,811.0,-21.0,1,0
350,612.0820,-5649.6919,-5037.6099,5649.9087,612.2987,0.3001,612.5989,0.3668,-275,0.2,275,0.75,1;0;0,1,612.2161,0.0,-769.0,-66.0,1,0
351,612.9657,-5650.5756,-5037.6099,5651.9929,614.3829,0.3001,614.6830,0.3668,-275,0.2,275,0.2235,0;0.5;0,1,614.3002,1.0,790.0,-45.0,1,1
352,615.0499,-5652.6598,-5037.6099,5653.3101,615.7001,0.3001,616.0002,0.3668,275,0.2,-275,0.75,0;0.5;0,0,615.6090,0.0,-798.0,-66.0,1,1
353,616.3671,-5653.9770,-5037.6099,5655.2775,617.6676,0.3001,617.9677,0.3668,275,0.2,-275,0.2235,1;0;0,0,617.5765,1.0,783.0,-38.0,1,0
354,618.3345,-5655.9445,-5037.6099,5656.5447,618.9348,0.3001,619.2349,0.3668,-275,0.2,275,1,0;0.5;0,1,618.8522,1.0,778.0,-41.0,1,1
355,619.6017,-5657.2116,-5037.6099,5659.1791,621.5692,0.3001,621.8693,0.3668,275,0,-275,0.001,1;0;0,0,621.4864,1.0,792.0,-31.0,1,0
356,622.2361,-5659.8460,-5037.6099,5660.6297,623.0198,0.3001,623.3199,0.3668,-275,0.2,275,0.2671,0;0.5;0,1,622.9371,1.0,779.0,-39.0,1,1
357,623.6867,-5661.2966,-5037.6099,5661.9302,624.3203,0.3001,624.6204,0.3668,275,0.0167,-275,0.2088,0;0.5;0,0,624.2292,0.0,-795.0,-63.0,1,1
358,624.9872,-5662.5971,-5037.6099,5663.1307,625.5208,0.3001,625.8209,0.3668,-275,0.0167,275,0.0838,0;0.5;0,1,625.4298,1.0,782.0,-33.0,1,1
359,626.1877,-5663.7976,-5037.6099,5664.2478,626.6379,0.3001,626.9380,0.3668,275,0.45,-275,0.5171,0;0.5;0,0,626.5468,0.0,-775.0,-90.0,1,1
360,627.3048,-5664.9148,-5037.6099,5665.1315,627.5216,0.3001,627.8217,0.3668,-275,0.0167,275,0.0249,1;0;0,1,627.4389,0.0,-811.0,-76.0,1,0
361,628.1885,-5665.7984,-5037.6099,5666.5654,628.9555,0.3001,629.2556,0.3668,275,0.45,-275,0.4582,1;0;0,0,628.8645,1.0,777.0,-28.0,1,0
362,629.6224,-5667.2324,-5037.6099,5668.3328,630.7229,0.3001,631.0230,0.3668,-275,0.0167,275,0.0249,0;0.5;0,1,630.6319,1.0,780.0,-28.0,1,1
363,631.3898,-5668.9997,-5037.6099,5669.8167,632.2068,0.3001,632.5069,0.3668,275,0.0088,-275,0.2009,0;0.5;0,0,632.1240,0.0,-820.0,-47.0,1,1
364,632.8737,-5670.4837,-5037.6099,5671.3007,633.6907,0.3001,633.9909,0.3668,-275,0,275,0.0671,0;0.5;0,1,633.6081,1.0,784.0,-25.0,1,1
365,634.3577,-5671.9676,-5037.6099,5673.9017,636.2918,0.3001,636.5919,0.3668,275,0,-275,0.0029,0;0.5;0,0,636.2091,0.0,-824.0,-56.0,1,1
366,636.9587,-5674.5687,-5037.6099,5675.5190,637.9091,0.3001,638.2092,0.3668,275,0.05,-275,0.0735,0;0.5;0,0,637.8180,0.0,-833.0,-55.0,1,1
367,638.5761,-5676.1860,-5037.6099,5677.2197,639.6098,0.3001,639.9099,0.3668,275,0.05,-275,0.0735,1;0;0,0,639.5271,1.0,824.0,-2.0,1,0
368,640.2767,-5677.8867,-5037.6099,5678.6036,640.9937,0.3001,641.2938,0.3668,275,0.2,-275,0.75,0;0.5;0,0,640.9111,0.0,-824.0,-51.0,1,1
369,641.6606,-5679.2706,-5037.6099,5680.4877,642.8778,0.3001,643.1779,0.3668,-275,0.0167,275,0.0402,0;0.5;0,1,642.7951,1.0,829.0,1.0,1,1
370,643.5447,-5681.1547,-5037.6099,5681.5548,643.9449,0.3001,644.2450,0.3668,-275,0,275,0.0082,0;0.5;0,1,643.8621,1.0,812.0,-1.0,1,1
371,644.6118,-5682.2218,-5037.6099,5682.3385,644.7285,0.3001,645.0287,0.3668,-275,0.0167,275,0.2088,0;0.5;0,1,644.6459,1.0,818.0,-1.0,1,1
372,645.3955,-5683.0054,-5037.6099,5684.1559,646.5459,0.3001,646.8461,0.3668,275,0.2,-275,0.2082,0;0.5;0,0,646.4549,0.0,-825.0,-49.0,1,1
373,647.2129,-5684.8228,-5037.6099,5685.5898,647.9799,0.3001,648.2800,0.3668,-275,0.0088,275,0.0759,0;0.5;0,1,647.8970,1.0,831.0,10.0,1,1
374,648.6468,-5686.2567,-5037.6099,5687.0237,649.4138,0.3001,649.7139,0.3668,275,0.0167,-275,0.0402,0;0.5;0,0,649.3310,0.0,-826.0,-37.0,1,1
375,650.0807,-5687.6906,-5037.6099,5688.4076,650.7977,0.3001,651.0978,0.3668,275,0.2,-275,0.75,0;0.5;0,0,650.7067,0.0,-841.0,-24.0,1,1
376,651.4646,-5689.0745,-5037.6099,5690.9420,653.3320,0.3001,653.6322,0.3668,275,0.0167,-275,0.0402,0;0.5;0,0,653.2492,0.0,-867.0,-25.0,1,1
377,653.9990,-5691.6089,-5037.6099,5692.4926,654.8827,0.3001,655.1828,0.3668,275,0.0088,-275,0.0323,0;0.5;0,0,654.7915,0.0,-831.0,-36.0,1,1
378,655.5496,-5693.1595,-5037.6099,5693.9765,656.3666,0.3001,656.6667,0.3668,275,0.0167,-275,0.0249,0;0.5;0,0,656.2755,0.0,-835.0,-22.0,1,1
379,657.0335,-5694.6435,-5037.6099,5695.0269,657.4170,0.3001,657.7171,0.3668,275,0.0167,-275,0.0249,0;0.5;0,0,657.3344,0.0,-841.0,-37.0,1,1
380,658.0840,-5695.6939,-5037.6099,5695.8606,658.2507,0.3001,658.5508,0.3668,275,0,-275,0.1921,0;0.5;0,0,658.1679,0.0,-836.0,-73.0,1,1
381,658.9176,-5696.5276,-5037.6099,5697.4946,659.8847,0.3001,660.1848,0.3668,-275,0.2,275,0.2082,1;0;0,1,659.8019,0.0,-860.0,-35.0,1,0
382,660.5516,-5698.1615,-5037.6099,5698.5450,660.9351,0.3001,661.2352,0.3668,-275,0,275,0.0082,0;0.5;0,1,660.8525,1.0,812.0,-14.0,1,1
383,661.6020,-5699.2120,-5037.6099,5699.8622,662.2523,0.3001,662.5524,0.3668,-275,0.0088,275,0.2009,0;0.5;0,1,662.1694,1.0,800.0,-24.0,1,1
384,662.9192,-5700.5292,-5037.6099,5701.3295,663.7196,0.3001,664.0197,0.3668,-275,0.0167,275,0.0196,0;0.5;0,1,663.6368,1.0,821.0,-13.0,1,1
385,664.3865,-5701.9964,-5037.6099,5702.6967,665.0868,0.3001,665.3869,0.3668,-275,0.2,275,0.2082,1;0;0,1,664.9959,0.0,-776.0,-90.0,1,0
386,665.7537,-5703.3637,-5037.6099,5704.0306,666.4207,0.3001,666.7208,0.3668,275,0.45,-275,0.4582,1;0;0,0,666.3296,1.0,807.0,-19.0,1,0
387,667.0876,-5704.6975,-5037.6099,5706.6316,669.0217,0.3001,669.3218,0.3668,-275,0.05,275,0.6,0;0.5;0,1,668.9390,1.0,817.0,-8.0,1,1
388,669.6887,-5707.2986,-5037.6099,5708.1656,670.5557,0.3001,670.8558,0.3668,275,0.0167,-275,0.0177,1;0;0,0,670.4729,1.0,827.0,-9.0,1,0
389,671.2226,-5708.8325,-5037.6099,5709.3494,671.7395,0.3001,672.0396,0.3668,275,0,-275,0.0671,0;0.5;0,0,671.6567,0.0,-759.0,-76.0,1,1
390,672.4064,-5710.0163,-5037.6099,5710.6833,673.0734,0.3001,673.3735,0.3668,275,0.2,-275,0.2082,0;0.5;0,0,672.9906,0.0,-772.0,-69.0,1,1
391,673.7403,-5711.3502,-5037.6099,5711.9338,674.3239,0.3001,674.6240,0.3668,275,0.05,-275,0.0582,0;0.5;0,0,674.2329,0.0,-779.0,-68.0,1,1
392,674.9908,-5712.6007,-5037.6099,5713.1676,675.5577,0.3001,675.8578,0.3668,275,0,-275,0.0082,0;0.5;0,0,675.4751,0.0,-790.0,-66.0,1,1
393,676.2246,-5713.8346,-5037.6099,5714.3848,676.7749,0.3001,677.0750,0.3668,-275,0,275,0.0671,0;0.5;0,1,676.6922,1.0,818.0,-22.0,1,1
394,677.4418,-5715.0517,-5037.6099,5715.6019,677.9920,0.3001,678.2921,0.3668,-275,0,275,0.0029,0;0.5;0,1,677.9009,1.0,832.0,-26.0,1,1
395,678.6589,-5716.2689,-5037.6099,5716.8858,679.2759,0.3001,679.5760,0.3668,275,0.45,-275,0.5171,1;0;0,0,679.1931,1.0,841.0,-9.0,1,0
396,679.9428,-5717.5527,-5037.6099,5717.8195,680.2096,0.3001,680.5097,0.3668,275,0.05,-275,0.1171,0;0.5;0,0,680.1185,0.0,-793.0,-72.0,1,1
397,680.8765,-5718.4864,-5037.6099,5719.0867,681.4768,0.3001,681.7769,0.3668,-275,0.45,275,1,0;0.5;0,1,681.3858,1.0,847.0,-22.0,1,1
398,682.1437,-5719.7536,-5037.6099,5721.5877,683.9778,0.3001,684.2779,0.3668,-275,0.0088,275,0.017,0;0.5;0,1,683.8951,1.0,853.0,-8.0,1,1
399,684.6447,-5722.2546,-5037.6099,5722.9883,685.3783,0.3001,685.6785,0.3668,-275,0.2,275,0.3921,0;0.5;0,1,685.2956,1.0,839.0,-14.0,1,1
400,686.0453,-5723.6552,-5037.6099,5724.2054,686.5955,0.3001,686.8956,0.3668,275,0.0088,-275,0.0759,0;0.5;0,0,686.5045,0.0,-772.0,-73.0,1,1
401,687.2624,-5724.8724,-5037.6099,5725.6727,688.0628,0.3001,688.3629,0.3668,275,0.0167,-275,0.0249,1;0;0,0,687.9717,1.0,855.0,5.0,1,0
402,688.7297,-5726.3396,-5037.6099,5727.1066,689.4967,0.3001,689.7968,0.3668,275,0.45,-275,0.4735,0;0.5;0,0,689.4140,0.0,-778.0,-67.0,1,1
403,690.1636,-5727.7735,-5037.6099,5728.6072,690.9973,0.3001,691.2974,0.3668,275,0.2,-275,0.2671,0;0.5;0,0,690.9061,0.0,-804.0,-55.0,1,1
404,691.6642,-5729.2741,-5037.6099,5729.9244,692.3145,0.3001,692.6146,0.3668,-275,0.0167,275,0.2088,0;0.5;0,1,692.2317,1.0,861.0,3.0,1,1
405,692.9814,-5730.5913,-5037.6099,5731.3083,693.6984,0.3001,693.9985,0.3668,275,0.2,-275,0.3921,0;0.5;0,0,693.6073,0.0,-802.0,-62.0,1,1
406,694.3653,-5731.9752,-5037.6099,5732.5588,694.9489,0.3001,695.2490,0.3668,275,0.05,-275,0.2421,0;0.5;0,0,694.8661,0.0,-812.0,-58.0,1,1
407,695.6158,-5733.2257,-5037.6099,5734.0427,696.4328,0.3001,696.7329,0.3668,-275,0.0088,275,0.0759,0;0.5;0,1,696.3419,1.0,907.0,20.0,1,1
408,697.0997,-5734.7097,-5037.6099,5735.1765,697.5666,0.3001,697.8667,0.3668,-275,0.05,275,0.0529,1;0;0,1,697.4839,0.0,-788.0,-72.0,1,0
409,698.2335,-5735.8435,-5037.6099,5736.3437,698.7337,0.3001,699.0339,0.3668,-275,0,275,0.001,0;0.5;0,1,698.6428,1.0,897.0,21.0,1,1
410,699.4007,-5737.0106,-5037.6099,5737.6442,700.0343,0.3001,700.3344,0.3668,275,0.2,-275,0.3921,0;0.5;0,0,699.9515,0.0,-806.0,-50.0,1,1
411,700.7012,-5738.3111,-5037.6099,5739.0281,701.4182,0.3001,701.7183,0.3668,275,0.45,-275,0.6421,0;0.5;0,0,701.3354,0.0,-862.0,-36.0,1,1
412,702.0851,-5739.6950,-5037.6099,5741.0622,703.4523,0.3001,703.7524,0.3668,-275,0.0167,275,0.0177,1;0;0,1,703.3696,0.0,-870.0,-27.0,1,0
413,704.1193,-5741.7292,-5037.6099,5742.9130,705.3031,0.3001,705.6032,0.3668,275,0.2,-275,0.2671,1;0;0,0,705.2120,1.0,875.0,15.0,1,0
414,705.9700,-5743.5799,-5037.6099,5744.1802,706.5702,0.3001,706.8704,0.3668,-275,0,275,0.1921,0;0.5;0,1,706.4874,1.0,875.0,12.0,1,1
415,707.2372,-5744.8471,-5037.6099,5746.0142,708.4043,0.3001,708.7044,0.3668,-275,0.0088,275,0.0323,0;0.5;0,1,708.3217,1.0,885.0,21.0,1,1
416,709.0713,-5746.6812,-5037.6099,5747.2981,709.6882,0.3001,709.9883,0.3668,275,0.2,-275,0.75,0;0.5;0,0,709.5970,0.0,-846.0,-38.0,1,1
417,710.3551,-5747.9650,-5037.6099,5749.0822,711.4722,0.3001,711.7724,0.3668,-275,0,275,0.0029,1;0;0,1,711.3895,0.0,-830.0,-52.0,1,0
418,712.1392,-5749.7491,-5037.6099,5749.8658,712.2559,0.3001,712.5560,0.3668,-275,0.45,275,0.5171,0;0.5;0,1,712.1730,1.0,885.0,15.0,1,1
419,712.9228,-5750.5327,-5037.6099,5750.6995,713.0896,0.3001,713.3897,0.3668,-275,0.2,275,0.3921,0;0.5;0,1,712.9986,1.0,884.0,15.0,1,1
420,713.7565,-5751.3664,-5037.6099,5751.5832,713.9732,0.3001,714.2734,0.3668,275,0,-275,0.1921,1;0;0,0,713.8822,1.0,856.0,-12.0,1,0
421,714.6402,-5752.2501,-5037.6099,5753.4673,715.8573,0.3001,716.1575,0.3668,-275,0.05,275,0.6,0;0.5;0,1,715.7746,1.0,854.0,-17.0,1,1
422,716.5243,-5754.1342,-5037.6099,5754.8845,717.2746,0.3001,717.5747,0.3668,-275,0.0167,275,0.0402,0;0.5;0,1,717.1834,1.0,861.0,-9.0,1,1
423,717.9415,-5755.5514,-5037.6099,5756.3518,718.7418,0.3001,719.0420,0.3668,-275,0.2,275,0.2671,0;0.5;0,1,718.6508,1.0,850.0,-4.0,1,1
424,719.4088,-5757.0187,-5037.6099,5757.8190,720.2091,0.3001,720.5092,0.3668,-275,0.45,275,0.5171,1;0;0,1,720.1263,0.0,-719.0,-85.0,1,0
425,720.8760,-5758.4860,-5037.6099,5759.0529,721.4429,0.3001,721.7431,0.3668,275,0.0088,-275,0.2009,0;0.5;0,0,721.3519,0.0,-734.0,-85.0,1,1
426,722.1099,-5759.7198,-5037.6099,5760.2867,722.6768,0.3001,722.9769,0.3668,275,0.0088,-275,0.0759,0;0.5;0,0,722.5941,0.0,-770.0,-92.0,1,1
427,723.3437,-5760.9536,-5037.6099,5761.7706,724.1607,0.3001,724.4608,0.3668,275,0.0088,-275,0.0323,0;0.5;0,0,724.0696,0.0,-752.0,-103.0,1,1
428,724.8276,-5762.4376,-5037.6099,5763.2546,725.6446,0.3001,725.9448,0.3668,275,0,-275,0.001,0;0.5;0,0,725.5535,0.0,-763.0,-86.0,1,1
429,726.3116,-5763.9215,-5037.6099,5764.8719,727.2620,0.3001,727.5621,0.3668,-275,0.45,275,0.5171,1;0;0,1,727.1710,0.0,-766.0,-77.0,1,0
430,727.9289,-5765.5388,-5037.6099,5766.2558,728.6458,0.3001,728.9460,0.3668,275,0.2,-275,0.2235,0;0.5;0,0,728.5547,0.0,-776.0,-81.0,1,1
431,729.3128,-5766.9227,-5037.6099,5767.6063,729.9964,0.3001,730.2965,0.3668,275,0.2,-275,0.2235,0;0.5;0,0,729.9136,0.0,-779.0,-82.0,1,1
432,730.6633,-5768.2733,-5037.6099,5768.6401,731.0301,0.3001,731.3303,0.3668,-275,0.05,275,0.2421,1;0;0,1,730.9476,0.0,-798.0,-76.0,1,0
433,731.6971,-5769.3070,-5037.6099,5769.5238,731.9138,0.3001,732.2140,0.3668,275,0.0167,-275,0.0196,1;0;0,0,731.8229,1.0,876.0,14.0,1,0
434,732.5808,-5770.1907,-5037.6099,5770.2907,732.6808,0.3001,732.9809,0.3668,275,0.0088,-275,0.0117,1;0;0,0,732.5897,1.0,880.0,10.0,1,0
435,733.3477,-5770.9577,-5037.6099,5771.5579,733.9480,0.3001,734.2481,0.3668,275,0,-275,0.001,1;0;0,0,733.8654,1.0,880.0,10.0,1,0
436,734.6149,-5772.2249,-5037.6099,5772.4583,734.8484,0.3001,735.1485,0.3668,275,0.0088,-275,0.017,0;0.5;0,0,734.7571,0.0,-782.0,-49.0,1,1
437,735.5153,-5773.1252,-5037.6099,5773.2419,735.6320,0.3001,735.9321,0.0000,-275,0,275,0.001,1;0;0,1,735.5493,0.0,-781.0,-51.0,1,0
438,735.9321,-5773.5421,-5037.6099,5773.9589,736.3490,0.3001,736.6491,0.3668,275,0.0167,-275,0.0249,0;0.5;0,0,736.2579,0.0,-785.0,-57.0,1,1
439,737.0159,-5774.6258,-5037.6099,5774.7759,737.1660,0.3001,737.4661,0.3668,-275,0.2,275,0.2235,1;0;0,1,737.0833,0.0,-803.0,-65.0,1,0
440,737.8329,-5775.4428,-5037.6099,5776.1598,738.5499,0.3001,738.8500,0.3668,-275,0.0167,275,0.2088,0;0.5;0,1,738.4588,1.0,876.0,5.0,1,1
441,739.2168,-5776.8267,-5037.6099,5778.8609,741.2509,0.3001,741.5511,0.3668,-275,0,275,0.0235,0;0.5;0,1,741.1599,1.0,874.0,10.0,1,1
442,741.9179,-5779.5278,-5037.6099,5780.2281,742.6182,0.3001,742.9183,0.3668,275,0.05,-275,0.2421,0;0.5;0,0,742.5272,0.0,-807.0,-50.0,1,1
443,743.2851,-5780.8950,-5037.6099,5781.4453,743.8353,0.3001,744.1354,0.3668,275,0.0088,-275,0.2009,0;0.5;0,0,743.7525,0.0,-836.0,-59.0,1,1
444,744.5023,-5782.1122,-5037.6099,5783.0626,745.4526,0.3001,745.7528,0.0000,-275,0.0167,275,0.0177,1;0;0,1,745.3618,0.0,-860.0,-46.0,1,0
445,745.7528,-5783.3627,-5037.6099,5783.7795,746.1696,0.3001,746.4697,0.3668,-275,0,275,0.001,0;0.5;0,1,746.0870,1.0,892.0,9.0,1,1
446,746.8365,-5784.4465,-5037.6099,5785.0801,747.4701,0.3001,747.7703,0.3668,-275,0.0088,275,0.0323,0;0.5;0,1,747.3792,1.0,901.0,7.0,1,1
447,748.1371,-5785.7470,-5037.6099,5786.3973,748.7873,0.3001,749.0874,0.3668,-275,0.05,275,0.1171,0;0.5;0,1,748.7045,1.0,912.0,25.0,1,1
448,749.4543,-5787.0642,-5037.6099,5787.8979,750.2879,0.3001,750.5881,0.3668,275,0,-275,0.0082,1;0;0,0,750.1969,1.0,916.0,21.0,1,0
449,750.9549,-5788.5648,-5037.6099,5788.6982,751.0883,0.3001,751.3884,0.3668,-275,0.2,275,0.75,1;0;0,1,750.9972,0.0,-825.0,-60.0,1,0
450,751.7552,-5789.3651,-5037.6099,5790.0154,752.4055,0.3001,752.7056,0.3668,275,0.45,-275,1,0;0.5;0,0,752.3143,0.0,-822.0,-50.0,1,1
451,753.0724,-5790.6823,-5037.6099,5791.2992,753.6893,0.3001,753.9894,0.3668,-275,0,275,0.0029,0;0.5;0,1,753.6064,1.0,895.0,17.0,1,1
452,754.3562,-5791.9662,-5037.6099,5792.2163,754.6063,0.3001,754.9065,0.3668,275,0.0167,-275,0.0838,1;0;0,0,754.5236,1.0,888.0,8.0,1,0
453,755.2733,-5792.8832,-5037.6099,5793.0499,755.4400,0.3001,755.7401,0.3668,275,0.45,-275,0.4735,0;0.5;0,0,755.3575,0.0,-777.0,-9.0,1,1
454,756.1070,-5793.7169,-5037.6099,5794.5005,756.8906,0.3001,757.1907,0.3668,275,0.05,-275,0.6,0;0.5;0,0,756.7995,0.0,-779.0,-50.0,1,1
455,757.5575,-5795.1675,-5037.6099,5795.7344,758.1244,0.3001,758.4246,0.3668,-275,0.05,275,0.1171,0;0.5;0,1,758.0416,1.0,889.0,25.0,1,1
456,758.7914,-5796.4013,-5037.6099,5796.8848,759.2749,0.3001,759.5750,0.3668,275,0.0167,-275,0.0838,0;0.5;0,0,759.1838,0.0,-813.0,-42.0,1,1
457,759.9418,-5797.5518,-5037.6099,5798.2687,760.6588,0.3001,760.9589,0.3668,275,0.0088,-275,0.0759,0;0.5;0,0,760.5676,0.0,-841.0,-30.0,1,1
458,761.3257,-5798.9357,-5037.6099,5799.4525,761.8426,0.3001,762.1427,0.3668,-275,0.45,275,0.6421,0;0.5;0,1,761.7598,1.0,913.0,28.0,1,1
459,762.5095,-5800.1195,-5037.6099,5800.6864,763.0764,0.3001,763.3766,0.3668,-275,0.2,275,1,0;0.5;0,1,762.9936,1.0,904.0,27.0,1,1
460,763.7434,-5801.3533,-5037.6099,5802.2037,764.5937,0.3001,764.8938,0.3668,275,0.0167,-275,0.0177,0;0.5;0,0,764.5109,0.0,-870.0,-21.0,1,1
461,765.2607,-5802.8706,-5037.6099,5803.8710,766.2611,0.3001,766.5612,0.3668,275,0.0167,-275,0.0249,0;0.5;0,0,766.1784,0.0,-870.0,-33.0,1,1
462,766.9280,-5804.5379,-5037.6099,5805.1882,767.5783,0.3001,767.8784,0.3668,-275,0.0167,275,0.0838,0;0.5;0,1,767.4955,1.0,918.0,35.0,1,1
463,768.2452,-5805.8551,-5037.6099,5806.4220,768.8121,0.3001,769.1122,0.3668,275,0.45,-275,1,0;0.5;0,0,768.7210,0.0,-882.0,-16.0,1,1
464,769.4790,-5807.0890,-5037.6099,5810.2903,772.6803,0.3001,772.9804,0.3668,275,0.0088,-275,0.0098,1;0;0,0,772.5975,1.0,930.0,36.0,1,0
465,773.3473,-5810.9572,-5037.6099,5811.6908,774.0809,0.3001,774.3810,0.3668,275,0.0088,-275,0.0323,0;0.5;0,0,773.9898,0.0,-884.0,-12.0,1,1
466,774.7478,-5812.3578,-5037.6099,5812.8746,775.2647,0.3001,775.5648,0.3668,-275,0.0167,275,0.0402,0;0.5;0,1,775.1737,1.0,937.0,43.0,1,1
467,775.9316,-5813.5416,-5037.6099,5814.6420,777.0321,0.3001,777.3322,0.3668,275,0,-275,0.0029,1;0;0,0,776.9493,1.0,941.0,45.0,1,0
468,777.6990,-5815.3090,-5037.6099,5815.9425,778.3326,0.3001,778.6327,0.3668,-275,0.0088,275,0.0117,1;0;0,1,778.2415,0.0,-881.0,-31.0,1,0
469,778.9996,-5816.6095,-5037.6099,5817.5432,779.9333,0.3001,780.2334,0.3668,275,0.45,-275,1,0;0.5;0,0,779.8422,0.0,-883.0,-27.0,1,1
470,780.6002,-5818.2101,-5037.6099,5819.4273,781.8174,0.3001,782.1175,0.3668,275,0.05,-275,0.0529,1;0;0,0,781.7263,1.0,951.0,49.0,1,0
471,782.4843,-5820.0942,-5037.6099,5820.6611,783.0512,0.3001,783.3513,0.3668,275,0.05,-275,0.1171,0;0.5;0,0,782.9602,0.0,-885.0,-14.0,1,1
472,783.7181,-5821.3281,-5037.6099,5821.8616,784.2517,0.3001,784.5518,0.3668,275,0,-275,0.0671,0;0.5;0,0,784.1689,0.0,-888.0,-18.0,1,1
473,784.9186,-5822.5285,-5037.6099,5823.0954,785.4855,0.3001,785.7856,0.3668,-275,0.0167,275,0.2088,0;0.5;0,1,785.4028,1.0,951.0,49.0,1,1
474,786.1524,-5823.7624,-5037.6099,5824.4793,786.8694,0.3001,787.1695,0.3668,-275,0,275,0.0671,0;0.5;0,1,786.7866,1.0,949.0,48.0,1,1
475,787.5363,-5825.1463,-5037.6099,5826.0300,788.4200,0.3001,788.7202,0.3668,-275,0.0167,275,0.0249,0;0.5;0,1,788.3289,1.0,956.0,49.0,1,1
476,789.0870,-5826.6969,-5037.6099,5827.7306,790.1207,0.3001,790.4208,0.3668,-275,0,275,0.0029,0;0.5;0,1,790.0297,1.0,956.0,51.0,1,1
477,790.7877,-5828.3976,-5037.6099,5829.1145,791.5046,0.3001,791.8047,0.3668,-275,0.2,275,0.2235,0;0.5;0,1,791.4217,1.0,950.0,49.0,1,1
478,792.1715,-5829.7815,-5037.6099,5830.4484,792.8385,0.3001,793.1386,0.3668,-275,0.45,275,0.5171,1;0;0,1,792.7556,0.0,-887.0,-13.0,1,0
479,793.5054,-5831.1153,-5037.6099,5831.9824,794.3724,0.3001,794.6726,0.3668,-275,0.0167,275,0.0249,0;0.5;0,1,794.2897,1.0,950.0,49.0,1,1
480,795.0394,-5832.6493,-5037.6099,5834.0832,796.4733,0.3001,796.7734,0.3668,275,0.0088,-275,0.0117,1;0;0,0,796.3905,1.0,945.0,48.0,1,0
481,797.1402,-5834.7502,-5037.6099,5835.3337,797.7238,0.3001,798.0239,0.3668,275,0.0167,-275,0.2088,0;0.5;0,0,797.6328,0.0,-901.0,-12.0,1,1
482,798.3907,-5836.0007,-5037.6099,5837.0511,799.4412,0.3001,799.7413,0.3668,275,0.0088,-275,0.017,0;0.5;0,0,799.3584,0.0,-919.0,6.0,1,1
483,800.1081,-5837.7180,-5037.6099,5838.3850,800.7750,0.3001,801.0751,0.3668,-275,0.05,275,0.2421,0;0.5;0,1,800.6923,1.0,947.0,48.0,1,1
484,801.4420,-5839.0519,-5037.6099,5840.5358,802.9259,0.3001,803.2260,0.3668,-275,0.0088,275,0.0098,1;0;0,1,802.8349,0.0,-915.0,-6.0,1,0
485,803.5928,-5841.2028,-5037.6099,5841.7363,804.1264,0.3001,804.4265,0.3668,-275,0.45,275,1,0;0.5;0,1,804.0354,1.0,953.0,53.0,1,1
486,804.7933,-5842.4032,-5037.6099,5843.2869,805.6770,0.3001,805.9771,0.3668,-275,0,275,0.0235,0;0.5;0,1,805.5943,1.0,958.0,52.0,1,1
487,806.3439,-5843.9539,-5037.6099,5844.6708,807.0609,0.3001,807.3610,0.3668,275,0.2,-275,0.2671,1;0;0,0,806.9781,1.0,953.0,52.0,1,0
488,807.7278,-5845.3378,-5037.6099,5845.9047,808.2947,0.3001,808.5949,0.3668,275,0.2,-275,0.3921,0;0.5;0,0,808.2119,0.0,-925.0,-7.0,1,1
489,808.9617,-5846.5716,-5037.6099,5847.4386,809.8287,0.3001,810.1288,0.3668,-275,0.0167,275,0.0402,0;0.5;0,1,809.7375,1.0,950.0,51.0,1,1
490,810.4956,-5848.1056,-5037.6099,5848.6724,811.0625,0.3001,811.3626,0.3668,-275,0.05,275,0.2421,0;0.5;0,1,810.9797,1.0,950.0,51.0,1,1
491,811.7295,-5849.3394,-5037.6099,5850.4398,812.8299,0.3001,813.1300,0.3668,275,0.0167,-275,0.0196,1;0;0,0,812.7388,1.0,952.0,53.0,1,0
492,813.4968,-5851.1068,-5037.6099,5851.9238,814.3138,0.3001,814.6140,0.3668,275,0.05,-275,0.0582,0;0.5;0,0,814.2310,0.0,-932.0,-2.0,1,1
493,814.9808,-5852.5907,-5037.6099,5853.1743,815.5643,0.3001,815.8645,0.3668,-275,0.2,275,0.2082,0;0.5;0,1,815.4816,1.0,951.0,53.0,1,1
494,816.2313,-5853.8412,-5037.6099,5854.3247,816.7148,0.3001,817.0149,0.3668,275,0.0088,-275,0.0759,0;0.5;0,0,816.6237,0.0,-935.0,9.0,1,1
495,817.3817,-5854.9917,-5037.6099,5855.4752,817.8653,0.3001,818.1654,0.3668,-275,0.0167,275,0.0177,0;0.5;0,1,817.7742,1.0,956.0,53.0,1,1
496,818.5322,-5856.1421,-5037.6099,5856.5090,818.8990,0.3001,819.1991,0.3668,275,0.05,-275,0.2421,0;0.5;0,0,818.8162,0.0,-939.0,8.0,1,1
497,819.5660,-5857.1759,-5037.6099,5857.5594,819.9494,0.3001,820.2496,0.3668,-275,0.2,275,0.2082,0;0.5;0,1,819.8584,1.0,954.0,52.0,1,1
498,820.6164,-5858.2263,-5037.6099,5858.4931,820.8832,0.3001,821.1833,0.3668,-275,0.0088,275,0.0098,1;0;0,1,820.8004,0.0,-948.0,6.0,1,0
499,821.5501,-5859.1600,-5037.6099,5859.5935,821.9836,0.3001,822.2837,0.3668,-275,0.0167,275,0.0402,0;0.5;0,1,821.8926,1.0,948.0,50.0,1,1
500,822.6505,-5860.2605,-5037.6099,5860.9441,823.3342,0.3001,823.6343,0.3668,-275,0.2,275,0.2671,0;0.5;0,1,823.2430,1.0,948.0,52.0,1,1
501,824.0011,-5861.6110,-5037.6099,5862.2113,824.6013,0.3001,824.9015,0.3668,275,0.45,-275,0.4582,1;0;0,0,824.5185,1.0,944.0,52.0,1,0
502,825.2683,-5862.8782,-5037.6099,5863.4784,825.8685,0.3001,826.1686,0.3668,275,0.45,-275,0.5171,0;0.5;0,0,825.7774,0.0,-918.0,-10.0,1,1
503,826.5354,-5864.1454,-5037.6099,5864.9457,827.3358,0.3001,827.6359,0.3668,-275,0.2,275,0.2082,1;0;0,1,827.2448,0.0,-927.0,-8.0,1,0
504,828.0027,-5865.6126,-5037.6099,5866.0295,828.4195,0.3001,828.7197,0.3668,-275,0.0088,275,0.0117,0;0.5;0,1,828.3368,1.0,951.0,50.0,1,1
505,829.0865,-5866.6964,-5037.6099,5867.8302,830.2203,0.3001,830.5204,0.3668,-275,0.05,275,0.0529,1;0;0,1,830.1375,0.0,-912.0,-15.0,1,0
506,830.8872,-5868.4971,-5037.6099,5869.1807,831.5708,0.3001,831.8709,0.3668,-275,0,275,0.0235,0;0.5;0,1,831.4880,1.0,924.0,30.0,1,1
507,832.2378,-5869.8477,-5037.6099,5870.4646,832.8547,0.3001,833.1548,0.3668,-275,0.0088,275,0.0323,0;0.5;0,1,832.7719,1.0,930.0,35.0,1,1
508,833.5216,-5871.1315,-5037.6099,5871.6651,834.0552,0.3001,834.3553,0.3668,-275,0.45,275,0.4735,0;0.5;0,1,833.9725,1.0,930.0,35.0,1,1
509,834.7221,-5872.3320,-5037.6099,5873.5158,835.9059,0.3001,836.2060,0.3668,275,0,-275,0.001,1;0;0,0,835.8231,1.0,927.0,30.0,1,0
510,836.5728,-5874.1828,-5037.6099,5874.7997,837.1898,0.3001,837.4899,0.3668,-275,0.45,275,0.4582,0;0.5;0,1,837.0987,1.0,927.0,25.0,1,1
511,837.8567,-5875.4666,-5037.6099,5876.0502,838.4403,0.3001,838.7404,0.3668,275,0.2,-275,0.2235,1;0;0,0,838.3493,1.0,927.0,20.0,1,0
512,839.1072,-5876.7171,-5037.6099,5877.4007,839.7908,0.3001,840.0909,0.3668,275,0.05,-275,0.6,0;0.5;0,0,839.6997,0.0,-878.0,-20.0,1,1
513,840.4577,-5878.0677,-5037.6099,5878.6679,841.0580,0.3001,841.3581,0.3668,-275,0,275,0.0671,0;0.5;0,1,840.9668,1.0,932.0,29.0,1,1
514,841.7249,-5879.3348,-5037.6099,5879.8184,842.2085,0.3001,842.5086,0.3668,275,0.2,-275,1,0;0.5;0,0,842.1172,0.0,-875.0,-36.0,1,1
515,842.8754,-5880.4853,-5037.6099,5883.1030,845.4931,0.3001,845.7932,0.3668,275,0.0167,-275,0.0196,1;0;0,0,845.4104,1.0,932.0,32.0,1,0
516,846.1600,-5883.7700,-5037.6099,5884.0201,846.4102,0.3001,846.7103,0.3668,275,0.05,-275,0.1171,0;0.5;0,0,846.3274,0.0,-903.0,-20.0,1,1
517,847.0771,-5884.6870,-5037.6099,5885.3873,847.7774,0.3001,848.0775,0.0000,275,0.05,-275,0.0582,1;0;0,0,847.6862,1.0,937.0,34.0,1,0
518,848.0775,-5885.6874,-5037.6099,5886.1043,848.4943,0.3001,848.7944,0.3668,-275,0.2,275,1,1;0;0,1,848.4116,0.0,-882.0,-34.0,1,0
519,849.1613,-5886.7712,-5037.6099,5887.0546,849.4447,0.3001,849.7448,0.3668,275,0.0088,-275,0.2009,0;0.5;0,0,849.3619,0.0,-903.0,-23.0,1,1
520,850.1116,-5887.7216,-5037.6099,5888.2385,850.6285,0.3001,850.9286,0.3668,-275,0.05,275,0.2421,0;0.5;0,1,850.5374,1.0,949.0,39.0,1,1
521,851.2955,-5888.9054,-5037.6099,5889.3889,851.7790,0.3001,852.0791,0.3668,-275,0.05,275,0.6,0;0.5;0,1,851.6880,1.0,958.0,45.0,1,1
522,852.4459,-5890.0559,-5037.6099,5891.2397,853.6297,0.3001,853.9299,0.3668,275,0,-275,0.0235,1;0;0,0,853.5469,1.0,948.0,41.0,1,0
523,854.2967,-5891.9066,-5037.6099,5892.0066,854.3967,0.3001,854.6968,0.3668,275,0.0088,-275,0.017,0;0.5;0,0,854.3056,0.0,-911.0,-16.0,1,1
524,855.0637,-5892.6736,-5037.6099,5892.8903,855.2804,0.3001,855.5805,0.3668,275,0,-275,0.0671,0;0.5;0,0,855.1976,0.0,-910.0,-15.0,1,1
525,855.9473,-5893.5573,-5037.6099,5893.9908,856.3808,0.3001,856.6810,0.3668,-275,0.05,275,0.2421,1;0;0,1,856.2899,0.0,-913.0,-16.0,1,0
526,857.0478,-5894.6577,-5037.6099,5894.9412,857.3312,0.3001,857.6314,0.3668,275,0.0167,-275,0.0196,1;0;0,0,857.2402,1.0,937.0,34.0,1,0
527,857.9982,-5895.6081,-5037.6099,5895.8415,858.2316,0.3001,858.5317,0.3668,-275,0.0088,275,0.0098,1;0;0,1,858.1488,0.0,-911.0,-18.0,1,0
528,858.8985,-5896.5085,-5037.6099,5897.3588,859.7489,0.3001,860.0490,0.3668,275,0.0088,-275,0.017,1;0;0,0,859.6579,1.0,947.0,40.0,1,0
529,860.4158,-5898.0257,-5037.6099,5898.7094,861.0994,0.3001,861.3995,0.3668,275,0.0088,-275,0.0759,0;0.5;0,0,861.0167,0.0,-914.0,-11.0,1,1
530,861.7664,-5899.3763,-5037.6099,5899.9765,862.3666,0.3001,862.6667,0.3668,275,0.2,-275,1,0;0.5;0,0,862.2839,0.0,-927.0,1.0,1,1
531,863.0335,-5900.6435,-5037.6099,5901.0936,863.4837,0.3001,863.7838,0.3668,275,0.2,-275,1,0;0.5;0,0,863.4010,0.0,-920.0,-11.0,1,1
532,864.1507,-5901.7606,-5037.6099,5902.5609,864.9510,0.3001,865.2511,0.3668,-275,0.0167,275,0.0177,0;0.5;0,1,864.8599,1.0,937.0,37.0,1,1
533,865.6179,-5903.2278,-5037.6099,5904.1282,866.5183,0.3001,866.8184,0.3668,275,0.0088,-275,0.0098,1;0;0,0,866.4272,1.0,941.0,34.0,1,0
534,867.1852,-5904.7951,-5037.6099,5905.4788,867.8688,0.3001,868.1689,0.3668,-275,0.2,275,0.2235,0;0.5;0,1,867.7860,1.0,920.0,30.0,1,1
535,868.5358,-5906.1457,-5037.6099,5906.6792,869.0693,0.3001,869.3694,0.3668,275,0.05,-275,0.2421,0;0.5;0,0,868.9782,0.0,-817.0,-57.0,1,1
536,869.7363,-5907.3462,-5037.6099,5907.9798,870.3698,0.3001,870.6700,0.3668,275,0.45,-275,0.4735,0;0.5;0,0,870.2872,0.0,-814.0,-61.0,1,1
537,871.0368,-5908.6467,-5037.6099,5909.1636,871.5537,0.3001,871.8538,0.3668,275,0,-275,0.0671,0;0.5;0,0,871.4708,0.0,-808.0,-23.0,1,1
538,872.2206,-5909.8305,-5037.6099,5910.4141,872.8042,0.3001,873.1043,0.3668,275,0.2,-275,0.2671,0;0.5;0,0,872.7131,0.0,-851.0,-4.0,1,1
539,873.4711,-5911.0810,-5037.6099,5911.8313,874.2214,0.3001,874.5215,0.3668,-275,0.05,275,0.0735,1;0;0,1,874.1387,0.0,-841.0,-42.0,1,0
540,874.8883,-5912.4983,-5037.6099,5912.9318,875.3218,0.3001,875.6220,0.3668,-275,0.0088,275,0.2009,0;0.5;0,1,875.2306,1.0,922.0,24.0,1,1
541,875.9888,-5913.5987,-5037.6099,5914.0989,876.4890,0.3001,876.7891,0.3668,275,0.0167,-275,0.2088,0;0.5;0,0,876.4062,0.0,-825.0,-56.0,1,1
542,877.1559,-5914.7658,-5037.6099,5915.2994,877.6895,0.3001,877.9896,0.3668,275,0.0167,-275,0.0838,0;0.5;0,0,877.5984,0.0,-843.0,-53.0,1,1
543,878.3564,-5915.9663,-5037.6099,5916.8667,879.2568,0.3001,879.5569,0.3668,-275,0.45,275,0.4582,0;0.5;0,1,879.1657,1.0,916.0,25.0,1,1
544,879.9237,-5917.5336,-5037.6099,5918.1505,880.5406,0.3001,880.8407,0.3668,-275,0.05,275,0.0735,0;0.5;0,1,880.4496,1.0,916.0,28.0,1,1
545,881.2076,-5918.8175,-5037.6099,5920.0680,882.4581,0.3001,882.7582,0.3668,275,0.45,-275,0.4735,0;0.5;0,0,882.3670,0.0,-883.0,-18.0,1,1
546,883.1250,-5920.7349,-5037.6099,5921.3685,883.7586,0.3001,884.0587,0.3668,-275,0.0167,275,0.2088,0;0.5;0,1,883.6759,1.0,886.0,7.0,1,1
547,884.4255,-5922.0355,-5037.6099,5922.5190,884.9091,0.3001,885.2092,0.3668,275,0.0167,-275,0.0196,1;0;0,0,884.8179,1.0,898.0,20.0,1,0
548,885.5760,-5923.1859,-5037.6099,5924.9366,887.3267,0.3001,887.6268,0.3668,275,0,-275,0.0082,0;0.5;0,0,887.2440,0.0,-879.0,-13.0,1,1
549,887.9936,-5925.6036,-5037.6099,5926.4539,888.8440,0.3001,889.1441,0.3668,-275,0.05,275,0.0582,1;0;0,1,888.7528,0.0,-866.0,-23.0,1,0
550,889.5109,-5927.1208,-5037.6099,5927.6711,890.0611,0.3001,890.3613,0.3668,-275,0.45,275,0.4582,0;0.5;0,1,889.9701,1.0,903.0,19.0,1,1
551,890.7281,-5928.3380,-5037.6099,5930.5889,892.9790,0.3001,893.2791,0.3668,-275,0,275,0.001,0;0.5;0,1,892.8879,1.0,903.0,26.0,1,1
552,893.6459,-5931.2558,-5037.6099,5932.0228,894.4129,0.3001,894.7130,0.3668,275,0.2,-275,0.2082,0;0.5;0,0,894.3303,0.0,-759.0,-11.0,1,1
553,895.0798,-5932.6898,-5037.6099,5933.4067,895.7968,0.3001,896.0969,0.3668,275,0.45,-275,1,0;0.5;0,0,895.7140,0.0,-774.0,-20.0,1,1
554,896.4637,-5934.0737,-5037.6099,5935.0574,897.4475,0.3001,897.7476,0.3668,275,0.45,-275,0.6421,1;0;0,0,897.3647,1.0,866.0,14.0,1,0
555,898.1144,-5935.7243,-5037.6099,5936.3913,898.7813,0.3001,899.0814,0.3668,-275,0.05,275,0.0735,1;0;0,1,898.6903,0.0,-817.0,-31.0,1,0
556,899.4483,-5937.0582,-5037.6099,5938.0252,900.4153,0.3001,900.7154,0.3668,275,0.45,-275,0.6421,0;0.5;0,0,900.3326,0.0,-835.0,-18.0,1,1
557,901.0823,-5938.6922,-5037.6099,5940.7597,903.1498,0.3001,903.4499,0.3668,-275,0,275,0.001,1;0;0,1,903.0587,0.0,-881.0,1.0,1,0
558,903.8167,-5941.4266,-5037.6099,5942.0936,904.4836,0.3001,904.7838,0.3668,-275,0.05,275,0.2421,0;0.5;0,1,904.3925,1.0,869.0,1.0,1,1
559,905.1506,-5942.7605,-5037.6099,5943.6942,906.0843,0.3001,906.3844,0.3668,275,0.05,-275,0.0582,0;0.5;0,0,905.9932,0.0,-907.0,-11.0,1,1
560,906.7512,-5944.3611,-5037.6099,5944.9280,907.3181,0.3001,907.6182,0.3668,-275,0.05,275,0.2421,0;0.5;0,1,907.2353,1.0,884.0,5.0,1,1