trial,presentation_startTime,presentation_duration,prefeedback_startTime,prefeedback_duration,feedback_startTime,feedback_duration,fixation_startTime,fixation_duration,presentation_object1_positionX,presentation_object1_contrastValue,presentation_object2_positionX,presentation_object2_contrastValue,feedback_object1_color,trialValue,presentation_responseTime,presentation_response,presentation_touchPositionX,presentation_touchPositionY,respondedInTime,correct
1,49.2868,-26431.4963,-26382.2095,26436.4817,54.2721,0.3001,54.5722,0.3668,-275,0,275,0.0235,0;0.5;0,1,54.1853,1.0,845.0,-391.0,1,1
2,54.9391,-26437.1486,-26382.2095,26437.7155,55.5060,0.3001,55.8061,0.3668,-275,0.05,275,0.6,0;0.5;0,1,55.4273,1.0,868.0,-384.0,1,1
3,56.1729,-26438.3824,-26382.2095,26439.0661,56.8565,0.3001,57.1566,0.3668,-275,0.45,275,0.5171,0;0.5;0,1,56.7778,1.0,865.0,-391.0,1,1
4,57.5234,-26439.7330,-26382.2095,26440.4666,58.2571,0.3001,58.5572,0.3668,-275,0.05,275,0.1171,0;0.5;0,1,58.1784,1.0,882.0,-394.0,1,1
5,58.9240,-26441.1336,-26382.2095,26441.6504,59.4409,0.3001,59.7410,0.3668,275,0.0167,-275,0.2088,0;0.5;0,0,59.3540,0.0,-940.0,-430.0,1,1
6,60.1078,-26442.3174,-26382.2095,26443.0010,60.7914,0.3001,61.0916,0.3668,-275,0,275,0.0671,0;0.5;0,1,60.7045,1.0,877.0,-372.0,1,1
7,61.4584,-26443.6679,-26382.2095,26444.2682,62.0586,0.3001,62.3588,0.3668,-275,0.0167,275,0.0838,0;0.5;0,1,61.9802,1.0,885.0,-373.0,1,1
8,62.7256,-26444.9351,-26382.2095,26445.7855,63.5759,0.3001,63.8760,0.3668,275,0.45,-275,0.6421,1;0;0,0,63.4973,1.0,890.0,-393.0,1,0
9,64.2429,-26446.4524,-26382.2095,26447.9530,65.7435,0.3001,66.0436,0.3668,275,0.05,-275,0.0582,0;0.5;0,0,65.6566,0.0,-940.0,-427.0,1,1
10,66.4104,-26448.6199,-26382.2095,26449.4369,67.2274,0.3001,67.5275,0.3668,275,0.2,-275,0.3921,0;0.5;0,0,67.1405,0.0,-952.0,-427.0,1,1
11,67.8943,-26450.1039,-26382.2095,26450.6708,68.4612,0.3001,68.7614,0.3668,275,0.05,-275,0.1171,0;0.5;0,0,68.3744,0.0,-959.0,-422.0,1,1
12,69.1282,-26451.3377,-26382.2095,26453.3385,71.1290,0.3001,71.4291,0.3668,-275,0.0088,275,0.0098,0;0.5;0,1,71.0420,1.0,892.0,-402.0,1,1
13,71.7959,-26454.0055,-26382.2095,26454.7224,72.5129,0.3001,72.8130,0.3668,-275,0.0088,275,0.0323,0;0.5;0,1,72.4262,1.0,889.0,-392.0,1,1
14,73.1798,-26455.3894,-26382.2095,26455.8562,73.6467,0.3001,73.9468,0.3668,275,0.05,-275,0.6,0;0.5;0,0,73.5680,0.0,-955.0,-437.0,1,1
15,74.3136,-26456.5232,-26382.2095,26457.4069,75.1973,0.3001,75.4974,0.3668,-275,0.0167,275,0.0177,1;0;0,1,75.1189,0.0,-959.0,-435.0,1,0
16,75.8643,-26458.0738,-26382.2095,26458.7741,76.5645,0.3001,76.8647,0.3668,-275,0.2,275,0.75,0;0.5;0,1,76.4860,1.0,892.0,-394.0,1,1
17,77.2315,-26459.4410,-26382.2095,26460.0913,77.8817,0.3001,78.1819,0.3668,-275,0.05,275,0.2421,0;0.5;0,1,77.7949,1.0,887.0,-383.0,1,1
18,78.5487,-26460.7582,-26382.2095,26461.4418,79.2323,0.3001,79.5324,0.3668,275,0.05,-275,0.0735,0;0.5;0,0,79.1538,0.0,-954.0,-430.0,1,1
19,79.8992,-26462.1088,-26382.2095,26463.3760,81.1664,0.3001,81.4665,0.3668,-275,0,275,0.001,0;0.5;0,1,81.0798,1.0,896.0,-397.0,1,1
20,81.8334,-26464.0429,-26382.2095,26464.8099,82.6003,0.3001,82.9005,0.3668,-275,0,275,0.0235,0;0.5;0,1,82.5135,1.0,894.0,-393.0,1,1
21,83.2673,-26465.4768,-26382.2095,26466.3272,84.1176,0.3001,84.4177,0.3668,-275,0.05,275,0.0582,1;0;0,1,84.0309,0.0,-935.0,-444.0,1,0
22,84.7846,-26466.9941,-26382.2095,26467.8444,85.6349,0.3001,85.9350,0.3668,-275,0,275,0.0029,0;0.5;0,1,85.5481,1.0,897.0,-406.0,1,1
23,86.3018,-26468.5114,-26382.2095,26469.3284,87.1188,0.3001,87.4190,0.3668,275,0.05,-275,0.1171,0;0.5;0,0,87.0320,0.0,-953.0,-439.0,1,1
24,87.7858,-26469.9953,-26382.2095,26470.5455,88.3360,0.3001,88.6361,0.3668,275,0.05,-275,0.6,0;0.5;0,0,88.2491,0.0,-966.0,-428.0,1,1
25,89.0029,-26471.2125,-26382.2095,26471.8127,89.6032,0.3001,89.9033,0.3668,-275,0.45,275,0.6421,0;0.5;0,1,89.5164,1.0,900.0,-402.0,1,1
26,90.2701,-26472.4797,-26382.2095,26473.0966,90.8870,0.3001,91.1872,0.3668,275,0.2,-275,0.75,0;0.5;0,0,90.8084,0.0,-952.0,-419.0,1,1
27,91.5540,-26473.7635,-26382.2095,26474.4972,92.2876,0.3001,92.5877,0.3668,-275,0.2,275,0.2082,0;0.5;0,1,92.2007,1.0,903.0,-401.0,1,1
28,92.9546,-26475.1641,-26382.2095,26475.7643,93.5548,0.3001,93.8549,0.3668,-275,0.2,275,0.2082,0;0.5;0,1,93.4762,1.0,902.0,-380.0,1,1
29,94.2217,-26476.4313,-26382.2095,26477.7818,95.5723,0.3001,95.8724,0.3668,275,0,-275,0.001,1;0;0,0,95.4938,1.0,907.0,-404.0,1,0
30,96.2392,-26478.4488,-26382.2095,26479.0490,96.8395,0.3001,97.1396,0.3668,-275,0.45,275,1,0;0.5;0,1,96.7611,1.0,894.0,-399.0,1,1
31,97.5064,-26479.7159,-26382.2095,26480.4996,98.2901,0.3001,98.5902,0.3668,-275,0.2,275,0.2671,0;0.5;0,1,98.2117,1.0,903.0,-382.0,1,1
32,98.9570,-26481.1665,-26382.2095,26481.8168,99.6073,0.3001,99.9074,0.3668,-275,0.0167,275,0.0177,1;0;0,1,99.5287,0.0,-966.0,-431.0,1,0
33,100.2742,-26482.4837,-26382.2095,26482.9839,100.7744,0.3001,101.0745,0.3668,-275,0.2,275,0.3921,0;0.5;0,1,100.6874,1.0,906.0,-411.0,1,1
34,101.4413,-26483.6509,-26382.2095,26484.1844,101.9749,0.3001,102.2750,0.3668,275,0.0088,-275,0.0117,1;0;0,0,101.8964,1.0,904.0,-409.0,1,0
35,102.6418,-26484.8514,-26382.2095,26485.6350,103.4255,0.3001,103.7256,0.3668,275,0.05,-275,0.1171,0;0.5;0,0,103.3470,0.0,-955.0,-444.0,1,1
36,104.0924,-26486.3020,-26382.2095,26487.0356,104.8261,0.3001,105.1262,0.3668,275,0.2,-275,0.3921,0;0.5;0,0,104.7474,0.0,-956.0,-446.0,1,1
37,105.4930,-26487.7025,-26382.2095,26488.2027,105.9932,0.3001,106.2933,0.3668,275,0.05,-275,0.6,0;0.5;0,0,105.9063,0.0,-964.0,-450.0,1,1
38,106.6601,-26488.8697,-26382.2095,26489.4532,107.2437,0.3001,107.5438,0.3668,-275,0.2,275,0.3921,0;0.5;0,1,107.1569,1.0,902.0,-408.0,1,1
39,107.9106,-26490.1202,-26382.2095,26491.7709,109.5613,0.3001,109.8614,0.3668,-275,0.0088,275,0.0117,0;0.5;0,1,109.4827,1.0,904.0,-416.0,1,1
40,110.2283,-26492.4378,-26382.2095,26493.2048,110.9952,0.3001,111.2954,0.3668,-275,0.0167,275,0.0196,0;0.5;0,1,110.9083,1.0,915.0,-407.0,1,1
41,111.6622,-26493.8717,-26382.2095,26494.4553,112.2457,0.3001,112.5459,0.3668,-275,0.0167,275,0.2088,0;0.5;0,1,112.1672,1.0,909.0,-397.0,1,1
42,112.9127,-26495.1222,-26382.2095,26495.7725,113.5629,0.3001,113.8631,0.3668,-275,0.05,275,0.0582,0;0.5;0,1,113.4844,1.0,915.0,-408.0,1,1
43,114.2299,-26496.4394,-26382.2095,26497.0230,114.8135,0.3001,115.1136,0.3668,-275,0.05,275,0.2421,0;0.5;0,1,114.7350,1.0,901.0,-397.0,1,1
44,115.4804,-26497.6899,-26382.2095,26498.3402,116.1307,0.3001,116.4308,0.3668,275,0.0167,-275,0.0249,0;0.5;0,0,116.0523,0.0,-968.0,-453.0,1,1
45,116.7976,-26499.0071,-26382.2095,26499.5740,117.3645,0.3001,117.6646,0.3668,275,0.05,-275,0.6,0;0.5;0,0,117.2860,0.0,-969.0,-442.0,1,1
46,118.0314,-26500.2410,-26382.2095,26500.9746,118.7651,0.3001,119.0652,0.3668,-275,0.0088,275,0.0117,0;0.5;0,1,118.6867,1.0,895.0,-413.0,1,1
47,119.4320,-26501.6415,-26382.2095,26502.2918,120.0823,0.3001,120.3824,0.3668,275,0.2,-275,0.2671,1;0;0,0,119.9953,1.0,901.0,-402.0,1,0
48,120.7492,-26502.9587,-26382.2095,26503.6757,121.4662,0.3001,121.7663,0.3668,-275,0.45,275,0.4735,0;0.5;0,1,121.3875,1.0,909.0,-406.0,1,1
49,122.1331,-26504.3426,-26382.2095,26504.9095,122.7000,0.3001,123.0001,0.3668,275,0,-275,0.0671,0;0.5;0,0,122.6214,0.0,-968.0,-443.0,1,1
50,123.3669,-26505.5765,-26382.2095,26506.2601,124.0506,0.3001,124.3507,0.3668,275,0.45,-275,0.4582,0;0.5;0,0,123.9720,0.0,-970.0,-437.0,1,1
51,124.7175,-26506.9270,-26382.2095,26507.6607,125.4511,0.3001,125.7512,0.3668,-275,0.05,275,0.0582,1;0;0,1,125.3726,0.0,-965.0,-436.0,1,0
52,126.1181,-26508.3276,-26382.2095,26508.8778,126.6683,0.3001,126.9684,0.3668,-275,0.05,275,0.0735,0;0.5;0,1,126.5815,1.0,905.0,-411.0,1,1
53,127.3352,-26509.5448,-26382.2095,26510.2450,128.0355,0.3001,128.3356,0.3668,275,0.45,-275,0.4582,1;0;0,0,127.9486,1.0,893.0,-392.0,1,0
54,128.7024,-26510.9120,-26382.2095,26511.5956,129.3861,0.3001,129.6862,0.3668,-275,0,275,0.0671,0;0.5;0,1,129.3074,1.0,907.0,-408.0,1,1
55,130.0530,-26512.2625,-26382.2095,26513.4297,131.2201,0.3001,131.5203,0.3668,275,0,-275,0.0235,1;0;0,0,131.1332,1.0,905.0,-410.0,1,0
56,131.8871,-26514.0966,-26382.2095,26514.6635,132.4540,0.3001,132.7541,0.3668,-275,0,275,0.1921,0;0.5;0,1,132.3753,1.0,915.0,-373.0,1,1
57,133.1209,-26515.3305,-26382.2095,26516.0808,133.8712,0.3001,134.1713,0.3668,-275,0.45,275,0.6421,1;0;0,1,133.7927,0.0,-966.0,-434.0,1,0
58,134.5382,-26516.7477,-26382.2095,26517.3313,135.1217,0.3001,135.4218,0.3668,275,0.05,-275,0.6,0;0.5;0,0,135.0431,0.0,-973.0,-433.0,1,1
59,135.7887,-26517.9982,-26382.2095,26518.6818,136.4723,0.3001,136.7724,0.3668,275,0.0167,-275,0.0402,1;0;0,0,136.3937,1.0,902.0,-401.0,1,0
60,137.1392,-26519.3488,-26382.2095,26519.8656,137.6561,0.3001,137.9562,0.3668,-275,0,275,0.0671,0;0.5;0,1,137.5691,1.0,907.0,-395.0,1,1
61,138.3230,-26520.5326,-26382.2095,26521.0995,138.8899,0.3001,139.1901,0.3668,-275,0.0167,275,0.0838,0;0.5;0,1,138.8032,1.0,903.0,-393.0,1,1
62,139.5569,-26521.7664,-26382.2095,26522.2833,140.0737,0.3001,140.3739,0.3668,275,0.05,-275,0.6,0;0.5;0,0,139.9868,0.0,-976.0,-428.0,1,1
63,140.7407,-26522.9502,-26382.2095,26523.5671,141.3576,0.3001,141.6577,0.3668,-275,0,275,0.0235,0;0.5;0,1,141.2710,1.0,902.0,-394.0,1,1
64,142.0245,-26524.2341,-26382.2095,26524.8010,142.5914,0.3001,142.8916,0.3668,-275,0.0167,275,0.0838,0;0.5;0,1,142.5046,1.0,903.0,-373.0,1,1
65,143.2584,-26525.4679,-26382.2095,26526.0015,143.7919,0.3001,144.0920,0.3668,-275,0.05,275,0.2421,0;0.5;0,1,143.7050,1.0,916.0,-388.0,1,1
66,144.4589,-26526.6684,-26382.2095,26527.4521,145.2425,0.3001,145.5426,0.3668,275,0.0088,-275,0.0117,1;0;0,0,145.1639,1.0,903.0,-397.0,1,0
67,145.9095,-26528.1190,-26382.2095,26528.7859,146.5764,0.3001,146.8765,0.3668,-275,0.0167,275,0.0249,0;0.5;0,1,146.4978,1.0,909.0,-390.0,1,1
68,147.2433,-26529.4529,-26382.2095,26530.0531,147.8436,0.3001,148.1437,0.3668,275,0.05,-275,0.1171,0;0.5;0,0,147.7650,0.0,-973.0,-431.0,1,1
69,148.5105,-26530.7201,-26382.2095,26531.4370,149.2275,0.3001,149.5276,0.3668,275,0.2,-275,0.2235,1;0;0,0,149.1489,1.0,900.0,-392.0,1,0
70,149.8944,-26532.1039,-26382.2095,26533.2878,151.0782,0.3001,151.3783,0.3668,275,0,-275,0.0029,1;0;0,0,150.9996,1.0,912.0,-388.0,1,0
71,151.7452,-26533.9547,-26382.2095,26534.1048,151.8952,0.3001,152.1953,0.3668,-275,0.0088,275,0.0759,1;0;0,1,151.8167,0.0,-968.0,-412.0,1,0
72,152.5622,-26534.7717,-26382.2095,26535.4553,153.2458,0.3001,153.5459,0.3668,275,0,-275,0.1921,0;0.5;0,0,153.1590,0.0,-975.0,-397.0,1,1
73,153.9127,-26536.1223,-26382.2095,26536.6558,154.4463,0.3001,154.7464,0.3668,-275,0.05,275,0.0582,0;0.5;0,1,154.3594,1.0,893.0,-378.0,1,1
74,155.1132,-26537.3227,-26382.2095,26537.8730,155.6634,0.3001,155.9635,0.3668,-275,0.0167,275,0.0402,0;0.5;0,1,155.5765,1.0,898.0,-397.0,1,1
75,156.3304,-26538.5399,-26382.2095,26539.3569,157.1474,0.3001,157.4475,0.3668,275,0.0167,-275,0.0177,1;0;0,0,157.0607,1.0,896.0,-391.0,1,0
76,157.8143,-26540.0238,-26382.2095,26540.6408,158.4312,0.3001,158.7313,0.3668,275,0.0088,-275,0.0098,0;0.5;0,0,158.3444,0.0,-959.0,-416.0,1,1
77,159.0982,-26541.3077,-26382.2095,26542.3581,160.1486,0.3001,160.4487,0.3668,-275,0.45,275,0.4582,1;0;0,1,160.0617,0.0,-969.0,-412.0,1,0
78,160.8155,-26543.0251,-26382.2095,26543.7087,161.4991,0.3001,161.7993,0.3668,275,0.0167,-275,0.0177,1;0;0,0,161.4206,1.0,897.0,-360.0,1,0
79,162.1661,-26544.3756,-26382.2095,26544.9258,162.7163,0.3001,163.0164,0.3668,-275,0.05,275,0.6,0;0.5;0,1,162.6294,1.0,898.0,-382.0,1,1
80,163.3832,-26545.5928,-26382.2095,26546.1763,163.9668,0.3001,164.2669,0.3668,275,0,-275,0.1921,0;0.5;0,0,163.8799,0.0,-961.0,-426.0,1,1
81,164.6337,-26546.8433,-26382.2095,26547.4269,165.2173,0.3001,165.5174,0.3668,-275,0.0088,275,0.0323,0;0.5;0,1,165.1387,1.0,894.0,-376.0,1,1
82,165.8843,-26548.0938,-26382.2095,26548.7607,166.5512,0.3001,166.8513,0.3668,275,0.2,-275,0.3921,0;0.5;0,0,166.4726,0.0,-969.0,-421.0,1,1
83,167.2181,-26549.4277,-26382.2095,26550.7115,168.5020,0.3001,168.8021,0.3668,275,0,-275,0.0082,1;0;0,0,168.4234,1.0,901.0,-397.0,1,0
84,169.1689,-26551.3785,-26382.2095,26552.0454,169.8359,0.3001,170.1360,0.3668,-275,0,275,0.1921,0;0.5;0,1,169.7573,1.0,906.0,-386.0,1,1
85,170.5028,-26552.7123,-26382.2095,26553.6461,171.4365,0.3001,171.7366,0.3668,-275,0.45,275,0.4582,0;0.5;0,1,171.3498,1.0,908.0,-403.0,1,1
86,172.1034,-26554.3130,-26382.2095,26554.8799,172.6703,0.3001,172.9705,0.3668,-275,0.05,275,0.6,0;0.5;0,1,172.5834,1.0,907.0,-383.0,1,1
87,173.3373,-26555.5468,-26382.2095,26556.2471,174.0376,0.3001,174.3377,0.3668,-275,0.2,275,0.2235,0;0.5;0,1,173.9507,1.0,897.0,-391.0,1,1
88,174.7045,-26556.9140,-26382.2095,26557.6977,175.4882,0.3001,175.7883,0.3668,-275,0.0088,275,0.017,0;0.5;0,1,175.4096,1.0,902.0,-393.0,1,1
89,176.1551,-26558.3646,-26382.2095,26558.9149,176.7053,0.3001,177.0054,0.3668,-275,0.0088,275,0.2009,0;0.5;0,1,176.6267,1.0,902.0,-373.0,1,1
90,177.3723,-26559.5818,-26382.2095,26560.1654,177.9558,0.3001,178.2560,0.3668,-275,0.2,275,1,0;0.5;0,1,177.8690,1.0,897.0,-382.0,1,1
91,178.6228,-26560.8323,-26382.2095,26561.3992,179.1897,0.3001,179.4898,0.3668,275,0.2,-275,0.2082,1;0;0,0,179.1026,1.0,902.0,-384.0,1,0
92,179.8566,-26562.0661,-26382.2095,26562.7498,180.5402,0.3001,180.8403,0.3668,-275,0.0167,275,0.0838,0;0.5;0,1,180.4617,1.0,899.0,-388.0,1,1
93,181.2072,-26563.4167,-26382.2095,26563.9836,181.7741,0.3001,182.0742,0.3668,275,0.2,-275,0.2671,0;0.5;0,0,181.6956,0.0,-971.0,-422.0,1,1
94,182.4410,-26564.6505,-26382.2095,26565.3842,183.1746,0.3001,183.4747,0.3668,-275,0.45,275,0.5171,0;0.5;0,1,183.0961,1.0,898.0,-381.0,1,1
95,183.8416,-26566.0511,-26382.2095,26566.7014,184.4918,0.3001,184.7919,0.3668,-275,0.2,275,0.2671,0;0.5;0,1,184.4133,1.0,908.0,-378.0,1,1
96,185.1588,-26567.3683,-26382.2095,26567.9185,185.7090,0.3001,186.0091,0.3668,-275,0.2,275,0.3921,0;0.5;0,1,185.6304,1.0,904.0,-378.0,1,1
97,186.3759,-26568.5855,-26382.2095,26569.2691,187.0595,0.3001,187.3597,0.3668,275,0.45,-275,1,0;0.5;0,0,186.9810,0.0,-968.0,-427.0,1,1
98,187.7265,-26569.9360,-26382.2095,26570.8364,188.6268,0.3001,188.9270,0.3668,-275,0,275,0.0082,0;0.5;0,1,188.5400,1.0,895.0,-362.0,1,1
99,189.2938,-26571.5033,-26382.2095,26573.0706,190.8611,0.3001,191.1612,0.3668,275,0,-275,0.0029,1;0;0,0,190.7826,1.0,899.0,-366.0,1,0
100,191.5280,-26573.7376,-26382.2095,26574.7046,192.4951,0.3001,192.7952,0.3668,275,0.05,-275,0.0735,1;0;0,0,192.4165,1.0,894.0,-368.0,1,0
101,193.1620,-26575.3716,-26382.2095,26575.9885,193.7789,0.3001,194.0791,0.3668,275,0.0088,-275,0.0098,0;0.5;0,0,193.7005,0.0,-923.0,-398.0,1,1
102,194.4459,-26576.6554,-26382.2095,26577.4057,195.1962,0.3001,195.4963,0.3668,-275,0.05,275,0.0735,0;0.5;0,1,195.1177,1.0,908.0,-394.0,1,1
103,195.8631,-26578.0727,-26382.2095,26578.8396,196.6301,0.3001,196.9302,0.3668,275,0.45,-275,0.6421,1;0;0,0,196.5516,1.0,909.0,-401.0,1,0
104,197.2970,-26579.5066,-26382.2095,26580.2902,198.0807,0.3001,198.3808,0.3668,-275,0.2,275,0.2235,0;0.5;0,1,198.0021,1.0,912.0,-375.0,1,1
105,198.7476,-26580.9572,-26382.2095,26581.9076,199.6980,0.3001,199.9981,0.3668,275,0.0167,-275,0.0196,1;0;0,0,199.6110,1.0,903.0,-388.0,1,0
106,200.3650,-26582.5745,-26382.2095,26583.1414,200.9318,0.3001,201.2320,0.3668,275,0.0088,-275,0.2009,0;0.5;0,0,200.8450,0.0,-915.0,-407.0,1,1
107,201.5988,-26583.8083,-26382.2095,26585.1255,202.9160,0.3001,203.2161,0.3668,275,0.2,-275,0.2671,0;0.5;0,0,202.8374,0.0,-918.0,-393.0,1,1
108,203.5829,-26585.7925,-26382.2095,26586.3594,204.1498,0.3001,204.4499,0.3668,275,0.05,-275,0.6,0;0.5;0,0,204.0713,0.0,-919.0,-393.0,1,1
109,204.8168,-26587.0263,-26382.2095,26587.8100,205.6004,0.3001,205.9005,0.3668,-275,0.05,275,0.0582,0;0.5;0,1,205.5221,1.0,911.0,-390.0,1,1
110,206.2674,-26588.4769,-26382.2095,26589.0438,206.8343,0.3001,207.1344,0.3668,-275,0.2,275,1,0;0.5;0,1,206.7557,1.0,918.0,-375.0,1,1
111,207.5012,-26589.7107,-26382.2095,26590.2443,208.0347,0.3001,208.3349,0.3668,-275,0.05,275,0.6,0;0.5;0,1,207.9562,1.0,908.0,-383.0,1,1
112,208.7017,-26590.9112,-26382.2095,26591.7115,209.5020,0.3001,209.8021,0.3668,-275,0,275,0.0235,1;0;0,1,209.4235,0.0,-927.0,-382.0,1,0
113,210.1689,-26592.3785,-26382.2095,26592.9787,210.7692,0.3001,211.0693,0.3668,275,0.0167,-275,0.2088,0;0.5;0,0,210.6906,0.0,-922.0,-387.0,1,1
114,211.4361,-26593.6457,-26382.2095,26594.5294,212.3198,0.3001,212.6199,0.3668,-275,0.45,275,0.6421,1;0;0,1,212.2330,0.0,-926.0,-386.0,1,0
115,212.9868,-26595.1963,-26382.2095,26595.8466,213.6370,0.3001,213.9371,0.3668,275,0,-275,0.0671,0;0.5;0,0,213.5503,0.0,-932.0,-379.0,1,1
116,214.3040,-26596.5135,-26382.2095,26597.2638,215.0543,0.3001,215.3544,0.3668,-275,0.0167,275,0.0402,0;0.5;0,1,214.9673,1.0,900.0,-394.0,1,1
117,215.7212,-26597.9307,-26382.2095,26598.7644,216.5549,0.3001,216.8550,0.3668,-275,0.45,275,0.5171,0;0.5;0,1,216.4764,1.0,903.0,-378.0,1,1
118,217.2218,-26599.4314,-26382.2095,26600.0983,217.8887,0.3001,218.1889,0.3668,-275,0.05,275,0.0529,0;0.5;0,1,217.8017,1.0,905.0,-389.0,1,1
119,218.5557,-26600.7652,-26382.2095,26601.4488,219.2393,0.3001,219.5394,0.3668,275,0.0088,-275,0.0117,1;0;0,0,219.1606,1.0,909.0,-390.0,1,0
120,219.9062,-26602.1158,-26382.2095,26602.9661,220.7566,0.3001,221.0567,0.3668,-275,0,275,0.0235,1;0;0,1,220.6696,0.0,-934.0,-379.0,1,0
121,221.4235,-26603.6331,-26382.2095,26604.0999,221.8904,0.3001,222.1905,0.3668,275,0,-275,0.0082,1;0;0,0,221.8034,1.0,912.0,-403.0,1,0
122,222.5573,-26604.7669,-26382.2095,26604.9169,222.7074,0.3001,223.0075,0.3668,-275,0,275,0.001,1;0;0,1,222.6206,0.0,-937.0,-378.0,1,0
123,223.3743,-26605.5839,-26382.2095,26606.5176,224.3080,0.3001,224.6081,0.3668,-275,0.0088,275,0.0323,0;0.5;0,1,224.2295,1.0,891.0,-379.0,1,1
124,224.9750,-26607.1845,-26382.2095,26607.8181,225.6086,0.3001,225.9087,0.3668,-275,0.0167,275,0.0177,0;0.5;0,1,225.5217,1.0,901.0,-394.0,1,1
125,226.2755,-26608.4850,-26382.2095,26609.3020,227.0925,0.3001,227.3926,0.3668,275,0.0167,-275,0.0402,1;0;0,0,227.0058,1.0,890.0,-378.0,1,0
126,227.7594,-26609.9690,-26382.2095,26610.8193,228.6098,0.3001,228.9099,0.3668,275,0,-275,0.0082,0;0.5;0,0,228.5228,0.0,-919.0,-394.0,1,1
127,229.2767,-26611.4863,-26382.2095,26612.1032,229.8936,0.3001,230.1938,0.3668,275,0.0167,-275,0.0838,0;0.5;0,0,229.8067,0.0,-923.0,-396.0,1,1
128,230.5606,-26612.7701,-26382.2095,26613.4871,231.2775,0.3001,231.5777,0.3668,275,0.2,-275,0.2671,1;0;0,0,231.1989,1.0,894.0,-373.0,1,0
129,231.9445,-26614.1540,-26382.2095,26614.7709,232.5614,0.3001,232.8615,0.3668,-275,0,275,0.1921,0;0.5;0,1,232.4829,1.0,898.0,-388.0,1,1
130,233.2283,-26615.4379,-26382.2095,26616.0214,233.8119,0.3001,234.1120,0.3668,-275,0.2,275,0.75,0;0.5;0,1,233.7334,1.0,898.0,-373.0,1,1
131,234.4788,-26616.6884,-26382.2095,26617.5054,235.2958,0.3001,235.5960,0.3668,-275,0.0088,275,0.0323,0;0.5;0,1,235.2172,1.0,897.0,-393.0,1,1
132,235.9628,-26618.1723,-26382.2095,26618.9226,236.7131,0.3001,237.0132,0.3668,275,0.05,-275,0.0582,1;0;0,0,236.6344,1.0,897.0,-394.0,1,0
133,237.3800,-26619.5896,-26382.2095,26620.8067,238.5972,0.3001,238.8973,0.3668,275,0,-275,0.0082,1;0;0,0,238.5186,1.0,897.0,-395.0,1,0
134,239.2641,-26621.4737,-26382.2095,26622.9409,240.7314,0.3001,241.0315,0.3668,275,0.0167,-275,0.2088,1;0;0,0,240.6529,1.0,892.0,-374.0,1,0
135,241.3983,-26623.6079,-26382.2095,26624.7250,242.5154,0.3001,242.8156,0.3668,-275,0.0167,275,0.0249,1;0;0,1,242.4368,0.0,-915.0,-394.0,1,0
136,243.1824,-26625.3919,-26382.2095,26626.3090,244.0994,0.3001,244.3995,0.3668,-275,0.05,275,0.0735,0;0.5;0,1,244.0126,1.0,884.0,-372.0,1,1
137,244.7663,-26626.9759,-26382.2095,26627.5928,245.3833,0.3001,245.6834,0.3668,-275,0.05,275,0.1171,0;0.5;0,1,245.2964,1.0,886.0,-372.0,1,1
138,246.0502,-26628.2597,-26382.2095,26628.9767,246.7672,0.3001,247.0673,0.3668,275,0.2,-275,0.2235,0;0.5;0,0,246.6887,0.0,-932.0,-390.0,1,1
139,247.4341,-26629.6436,-26382.2095,26630.6607,248.4512,0.3001,248.7513,0.3668,275,0.0167,-275,0.0249,0;0.5;0,0,248.3728,0.0,-926.0,-393.0,1,1
140,249.1181,-26631.3277,-26382.2095,26632.8783,250.6687,0.3001,250.9689,0.3668,-275,0,275,0.0082,1;0;0,1,250.5820,0.0,-919.0,-402.0,1,0
141,251.3357,-26633.5452,-26382.2095,26634.1955,251.9860,0.3001,252.2861,0.3668,275,0.05,-275,0.0529,1;0;0,0,251.8991,1.0,878.0,-373.0,1,0
142,252.6529,-26634.8624,-26382.2095,26635.6961,253.4866,0.3001,253.7867,0.3668,-275,0.2,275,0.2235,0;0.5;0,1,253.4081,1.0,876.0,-364.0,1,1
143,254.1535,-26636.3630,-26382.2095,26636.9299,254.7204,0.3001,255.0205,0.3668,275,0.0088,-275,0.2009,0;0.5;0,0,254.6334,0.0,-923.0,-393.0,1,1
144,255.3873,-26637.5969,-26382.2095,26638.2471,256.0376,0.3001,256.3377,0.3668,275,0.05,-275,0.0582,1;0;0,0,255.9591,1.0,896.0,-376.0,1,0
145,256.7045,-26638.9141,-26382.2095,26639.5310,257.3215,0.3001,257.6216,0.3668,275,0.2,-275,0.75,0;0.5;0,0,257.2347,0.0,-924.0,-396.0,1,1
146,257.9884,-26640.1979,-26382.2095,26641.5151,259.3056,0.3001,259.6057,0.3668,-275,0.0167,275,0.0402,0;0.5;0,1,259.2187,1.0,891.0,-391.0,1,1
147,259.9725,-26642.1821,-26382.2095,26642.8490,260.6395,0.3001,260.9396,0.3668,275,0.0088,-275,0.0759,0;0.5;0,0,260.5527,0.0,-928.0,-393.0,1,1
148,261.3064,-26643.5159,-26382.2095,26644.4497,262.2401,0.3001,262.5402,0.3668,275,0.05,-275,0.0529,1;0;0,0,262.1533,1.0,897.0,-380.0,1,0
149,262.9071,-26645.1166,-26382.2095,26645.7835,263.5740,0.3001,263.8741,0.3668,-275,0,275,0.0029,1;0;0,1,263.4872,0.0,-925.0,-399.0,1,0
150,264.2409,-26646.4505,-26382.2095,26646.6172,264.4077,0.3001,264.7078,0.3668,-275,0.45,275,1,1;0;0,1,264.3290,0.0,-921.0,-403.0,1,0
151,265.0746,-26647.2841,-26382.2095,26648.0845,265.8749,0.3001,266.1751,0.3668,-275,0.0088,275,0.017,0;0.5;0,1,265.7963,1.0,889.0,-383.0,1,1
152,266.5419,-26648.7514,-26382.2095,26649.4183,267.2088,0.3001,267.5089,0.3668,275,0.2,-275,1,0;0.5;0,0,267.1304,0.0,-923.0,-400.0,1,1
153,267.8757,-26650.0853,-26382.2095,26650.7522,268.5427,0.3001,268.8428,0.3668,-275,0.2,275,0.2671,0;0.5;0,1,268.4641,1.0,887.0,-370.0,1,1
154,269.2096,-26651.4192,-26382.2095,26652.2862,270.0766,0.3001,270.3768,0.3668,-275,0.05,275,0.0582,0;0.5;0,1,269.9980,1.0,885.0,-379.0,1,1
155,270.7436,-26652.9531,-26382.2095,26654.3037,272.0941,0.3001,272.3942,0.3668,275,0.0088,-275,0.0323,1;0;0,0,272.0157,1.0,884.0,-380.0,1,0
156,272.7611,-26654.9706,-26382.2095,26655.6042,273.3947,0.3001,273.6948,0.3668,-275,0.2,275,0.75,0;0.5;0,1,273.3161,1.0,884.0,-370.0,1,1
157,274.0616,-26656.2711,-26382.2095,26657.6717,275.4622,0.3001,275.7623,0.3668,-275,0.0088,275,0.0117,0;0.5;0,1,275.3835,1.0,878.0,-383.0,1,1
158,276.1291,-26658.3386,-26382.2095,26659.0723,276.8627,0.3001,277.1629,0.3668,-275,0.0088,275,0.017,0;0.5;0,1,276.7759,1.0,882.0,-379.0,1,1
159,277.5297,-26659.7392,-26382.2095,26660.5562,278.3467,0.3001,278.6468,0.3668,275,0.0088,-275,0.0323,1;0;0,0,278.2599,1.0,882.0,-382.0,1,0
160,279.0136,-26661.2231,-26382.2095,26662.2402,280.0307,0.3001,280.3308,0.3668,-275,0.45,275,0.4582,1;0;0,1,279.9521,0.0,-933.0,-390.0,1,0
161,280.6976,-26662.9072,-26382.2095,26664.5578,282.3483,0.3001,282.6484,0.3668,275,0.0167,-275,0.0838,1;0;0,0,282.2697,1.0,875.0,-378.0,1,0
162,283.0152,-26665.2248,-26382.2095,26666.0251,283.8156,0.3001,284.1157,0.3668,275,0,-275,0.0082,0;0.5;0,0,283.7287,0.0,-923.0,-394.0,1,1
163,284.4825,-26666.6920,-26382.2095,26667.4257,285.2161,0.3001,285.5163,0.3668,-275,0.2,275,0.2082,0;0.5;0,1,285.1376,1.0,884.0,-373.0,1,1
164,285.8831,-26668.0926,-26382.2095,26668.6929,286.4833,0.3001,286.7834,0.3668,-275,0.45,275,0.4582,0;0.5;0,1,286.4048,1.0,886.0,-383.0,1,1
165,287.1502,-26669.3598,-26382.2095,26670.0101,287.8005,0.3001,288.1006,0.3668,-275,0,275,0.0671,0;0.5;0,1,287.7137,1.0,887.0,-371.0,1,1
166,288.4675,-26670.6770,-26382.2095,26671.2272,289.0177,0.3001,289.3178,0.3668,-275,0.2,275,1,0;0.5;0,1,288.9308,1.0,889.0,-378.0,1,1
167,289.6846,-26671.8942,-26382.2095,26672.6111,290.4016,0.3001,290.7017,0.3668,-275,0.2,275,0.2082,0;0.5;0,1,290.3230,1.0,882.0,-385.0,1,1
168,291.0685,-26673.2780,-26382.2095,26674.2618,292.0522,0.3001,292.3524,0.3668,275,0.0088,-275,0.017,1;0;0,0,291.9655,1.0,879.0,-385.0,1,0
169,292.7192,-26674.9287,-26382.2095,26676.7128,294.5032,0.3001,294.8034,0.3668,-275,0,275,0.001,1;0;0,1,294.4163,0.0,-923.0,-392.0,1,0
170,295.1702,-26677.3797,-26382.2095,26677.9299,295.7204,0.3001,296.0205,0.3668,-275,0.05,275,0.0735,0;0.5;0,1,295.6418,1.0,875.0,-381.0,1,1
171,296.3873,-26678.5969,-26382.2095,26679.8974,297.6879,0.3001,297.9880,0.3668,275,0.0088,-275,0.017,1;0;0,0,297.6094,1.0,874.0,-386.0,1,0
172,298.3548,-26680.5643,-26382.2095,26681.2313,299.0217,0.3001,299.3219,0.3668,-275,0.0167,275,0.0196,0;0.5;0,1,298.9433,1.0,874.0,-381.0,1,1
173,299.6887,-26681.8982,-26382.2095,26682.5985,300.3890,0.3001,300.6891,0.3668,275,0.0167,-275,0.0249,1;0;0,0,300.3020,1.0,874.0,-375.0,1,0
174,301.0559,-26683.2654,-26382.2095,26683.8657,301.6561,0.3001,301.9563,0.3668,-275,0.0088,275,0.2009,0;0.5;0,1,301.5776,1.0,879.0,-382.0,1,1
175,302.3231,-26684.5326,-26382.2095,26685.2496,303.0400,0.3001,303.3402,0.3668,275,0.05,-275,0.1171,0;0.5;0,0,302.9532,0.0,-934.0,-388.0,1,1
176,303.7070,-26685.9165,-26382.2095,26686.7669,304.5573,0.3001,304.8574,0.3668,275,0.0167,-275,0.0177,0;0.5;0,0,304.4707,0.0,-933.0,-393.0,1,1
177,305.2243,-26687.4338,-26382.2095,26688.2675,306.0579,0.3001,306.3581,0.3668,-275,0.2,275,0.2235,1;0;0,1,305.9795,0.0,-937.0,-388.0,1,0
178,306.7249,-26688.9344,-26382.2095,26689.4179,307.2084,0.3001,307.5085,0.3668,-275,0,275,0.0671,0;0.5;0,1,307.1215,1.0,886.0,-394.0,1,1
179,307.8753,-26690.0849,-26382.2095,26690.8685,308.6590,0.3001,308.9591,0.3668,275,0.05,-275,0.2421,0;0.5;0,0,308.5804,0.0,-939.0,-379.0,1,1
180,309.3259,-26691.5355,-26382.2095,26692.2024,309.9929,0.3001,310.2930,0.3668,-275,0.05,275,0.1171,0;0.5;0,1,309.9143,1.0,884.0,-392.0,1,1
181,310.6598,-26692.8693,-26382.2095,26693.4362,311.2267,0.3001,311.5268,0.3668,275,0.05,-275,0.2421,0;0.5;0,0,311.1399,0.0,-946.0,-371.0,1,1
182,311.8936,-26694.1032,-26382.2095,26694.8368,312.6273,0.3001,312.9274,0.3668,-275,0.0167,275,0.0196,0;0.5;0,1,312.5487,1.0,887.0,-388.0,1,1
183,313.2942,-26695.5038,-26382.2095,26696.1040,313.8945,0.3001,314.1946,0.3668,-275,0.2,275,1,0;0.5;0,1,313.8076,1.0,889.0,-378.0,1,1
184,314.5614,-26696.7709,-26382.2095,26697.4879,315.2783,0.3001,315.5785,0.3668,275,0.0088,-275,0.0323,1;0;0,0,315.1999,1.0,883.0,-385.0,1,0
185,315.9453,-26698.1548,-26382.2095,26698.7884,316.5789,0.3001,316.8790,0.3668,-275,0.0088,275,0.0117,1;0;0,1,316.4920,0.0,-948.0,-374.0,1,0
186,317.2458,-26699.4554,-26382.2095,26700.2057,317.9961,0.3001,318.2962,0.3668,-275,0.45,275,0.5171,0;0.5;0,1,317.9175,1.0,876.0,-388.0,1,1
187,318.6631,-26700.8726,-26382.2095,26702.1064,319.8969,0.3001,320.1970,0.3668,275,0,-275,0.1921,0;0.5;0,0,319.8101,0.0,-952.0,-375.0,1,1
188,320.5638,-26702.7734,-26382.2095,26703.3569,321.1474,0.3001,321.4475,0.3668,-275,0.2,275,1,0;0.5;0,1,321.0605,1.0,884.0,-379.0,1,1
189,321.8143,-26704.0239,-26382.2095,26705.3244,323.1149,0.3001,323.4150,0.3668,275,0.0167,-275,0.0402,1;0;0,0,323.0280,1.0,883.0,-376.0,1,0
190,323.7818,-26705.9913,-26382.2095,26706.5582,324.3487,0.3001,324.6488,0.3668,-275,0.45,275,0.6421,0;0.5;0,1,324.2617,1.0,883.0,-386.0,1,1
191,325.0156,-26707.2252,-26382.2095,26707.7587,325.5492,0.3001,325.8493,0.3668,275,0.2,-275,1,0;0.5;0,0,325.4706,0.0,-952.0,-366.0,1,1
192,326.2161,-26708.4257,-26382.2095,26710.1430,327.9335,0.3001,328.2336,0.3668,275,0.0167,-275,0.0196,1;0;0,0,327.8466,1.0,888.0,-371.0,1,0
193,328.6004,-26710.8100,-26382.2095,26711.3935,329.1840,0.3001,329.4841,0.3668,-275,0.05,275,0.1171,0;0.5;0,1,329.0974,1.0,885.0,-379.0,1,1
194,329.8509,-26712.0605,-26382.2095,26713.2443,331.0348,0.3001,331.3349,0.3668,275,0.0088,-275,0.017,1;0;0,0,330.9481,1.0,889.0,-381.0,1,0
195,331.7017,-26713.9112,-26382.2095,26714.5115,332.3019,0.3001,332.6021,0.3668,275,0.2,-275,0.2082,1;0;0,0,332.2150,1.0,893.0,-372.0,1,0
196,332.9689,-26715.1784,-26382.2095,26717.0792,334.8696,0.3001,335.1698,0.3668,275,0.0088,-275,0.0098,1;0;0,0,334.7827,1.0,883.0,-364.0,1,0
197,335.5366,-26717.7461,-26382.2095,26718.2297,336.0201,0.3001,336.3202,0.3668,275,0.0088,-275,0.0098,0;0.5;0,0,335.9415,0.0,-946.0,-360.0,1,1
198,336.6871,-26718.8966,-26382.2095,26719.8637,337.6541,0.3001,337.9542,0.3668,275,0,-275,0.0082,0;0.5;0,0,337.5755,0.0,-950.0,-359.0,1,1
199,338.3210,-26720.5306,-26382.2095,26721.2976,339.0880,0.3001,339.3881,0.3668,275,0.45,-275,0.5171,1;0;0,0,339.0093,1.0,866.0,-353.0,1,0
200,339.7550,-26721.9645,-26382.2095,26722.5647,340.3552,0.3001,340.6553,0.3668,275,0.0167,-275,0.0249,0;0.5;0,0,340.2766,0.0,-949.0,-360.0,1,1
201,341.0221,-26723.2317,-26382.2095,26724.3321,342.1226,0.3001,342.4227,0.3668,275,0.0088,-275,0.017,0;0.5;0,0,342.0441,0.0,-937.0,-363.0,1,1
202,342.7895,-26724.9991,-26382.2095,26725.8494,343.6399,0.3001,343.9400,0.3668,-275,0.05,275,0.6,0;0.5;0,1,343.5614,1.0,893.0,-353.0,1,1
203,344.3068,-26726.5164,-26382.2095,26728.0170,345.8074,0.3001,346.1075,0.3668,275,0.0167,-275,0.0196,1;0;0,0,345.7205,1.0,884.0,-349.0,1,0
204,346.4744,-26728.6839,-26382.2095,26729.5342,347.3247,0.3001,347.6248,0.0000,-275,0.0167,275,0.0196,1;0;0,1,347.2463,0.0,-927.0,-359.0,1,0
205,347.6248,-26729.8344,-26382.2095,26730.2512,348.0417,0.3001,348.3418,0.3668,275,0.0088,-275,0.0759,1;0;0,0,347.9548,1.0,879.0,-353.0,1,0
206,348.7086,-26730.9181,-26382.2095,26731.4183,349.2088,0.3001,349.5089,0.3668,-275,0.05,275,0.2421,0;0.5;0,1,349.1219,1.0,887.0,-352.0,1,1
207,349.8757,-26732.0853,-26382.2095,26734.4529,352.2434,0.3001,352.5435,0.3668,-275,0,275,0.001,0;0.5;0,1,352.1564,1.0,892.0,-352.0,1,1
208,352.9103,-26735.1198,-26382.2095,26735.7868,353.5772,0.3001,353.8774,0.3668,-275,0.05,275,0.6,0;0.5;0,1,353.4988,1.0,882.0,-343.0,1,1
209,354.2442,-26736.4537,-26382.2095,26737.0706,354.8611,0.3001,355.1612,0.3668,-275,0.0088,275,0.0759,0;0.5;0,1,354.7742,1.0,892.0,-346.0,1,1
210,355.5280,-26737.7376,-26382.2095,26738.3545,356.1450,0.3001,356.4451,0.3668,-275,0,275,0.0082,0;0.5;0,1,356.0665,1.0,882.0,-353.0,1,1
211,356.8119,-26739.0214,-26382.2095,26741.6058,359.3963,0.3001,359.6964,0.3668,-275,0.0167,275,0.0177,0;0.5;0,1,359.3176,1.0,884.0,-343.0,1,1
212,360.0632,-26742.2728,-26382.2095,26743.2565,361.0469,0.3001,361.3471,0.3668,-275,0.0167,275,0.0249,0;0.5;0,1,360.9601,1.0,885.0,-333.0,1,1
213,361.7139,-26743.9234,-26382.2095,26744.7571,362.5476,0.3001,362.8477,0.3668,275,0.2,-275,0.75,0;0.5;0,0,362.4607,0.0,-956.0,-343.0,1,1
214,363.2145,-26745.4240,-26382.2095,26746.1910,363.9815,0.3001,364.2816,0.3668,-275,0.45,275,1,0;0.5;0,1,363.8947,1.0,888.0,-332.0,1,1
215,364.6484,-26746.8580,-26382.2095,26747.6083,365.3987,0.3001,365.6988,0.3668,275,0.0088,-275,0.2009,0;0.5;0,0,365.3201,0.0,-955.0,-335.0,1,1
216,366.0657,-26748.2752,-26382.2095,26748.9255,366.7159,0.3001,367.0160,0.3668,275,0.45,-275,1,0;0.5;0,0,366.6374,0.0,-960.0,-346.0,1,1
217,367.3829,-26749.5924,-26382.2095,26750.3094,368.0998,0.3001,368.3999,0.3668,-275,0.45,275,0.4582,0;0.5;0,1,368.0214,1.0,889.0,-343.0,1,1
218,368.7668,-26750.9763,-26382.2095,26751.8100,369.6004,0.3001,369.9005,0.3668,275,0.2,-275,0.3921,1;0;0,0,369.5220,1.0,891.0,-333.0,1,0
219,370.2674,-26752.4769,-26382.2095,26753.0105,370.8009,0.3001,371.1010,0.3668,275,0.2,-275,0.2235,0;0.5;0,0,370.7140,0.0,-956.0,-349.0,1,1
220,371.4678,-26753.6774,-26382.2095,26754.2109,372.0014,0.3001,372.3015,0.3668,275,0.2,-275,0.75,0;0.5;0,0,371.9147,0.0,-951.0,-355.0,1,1
221,372.6683,-26754.8779,-26382.2095,26755.5615,373.3519,0.3001,373.6521,0.3668,-275,0.2,275,0.2235,1;0;0,1,373.2650,0.0,-954.0,-357.0,1,0
222,374.0189,-26756.2284,-26382.2095,26756.7786,374.5691,0.3001,374.8692,0.3668,275,0.05,-275,0.0529,1;0;0,0,374.4907,1.0,885.0,-348.0,1,0
223,375.2360,-26757.4456,-26382.2095,26758.3793,376.1698,0.3001,376.4699,0.3668,275,0.45,-275,0.5171,1;0;0,0,376.0829,1.0,884.0,-354.0,1,0
224,376.8367,-26759.0462,-26382.2095,26759.6632,377.4536,0.3001,377.7537,0.3668,-275,0.0167,275,0.0196,1;0;0,1,377.3668,0.0,-959.0,-352.0,1,0
225,378.1205,-26760.3301,-26382.2095,26760.8136,378.6041,0.3001,378.9042,0.3668,275,0.0167,-275,0.0177,1;0;0,0,378.5256,1.0,885.0,-342.0,1,0
226,379.2710,-26761.4806,-26382.2095,26762.1475,379.9380,0.3001,380.2381,0.3668,275,0.0088,-275,0.0117,1;0;0,0,379.8510,1.0,886.0,-343.0,1,0
227,380.6049,-26762.8144,-26382.2095,26763.3480,381.1384,0.3001,381.4386,0.3668,275,0,-275,0.1921,0;0.5;0,0,381.0598,0.0,-961.0,-352.0,1,1
228,381.8054,-26764.0149,-26382.2095,26765.1320,382.9225,0.3001,383.2226,0.3668,-275,0.0167,275,0.0196,0;0.5;0,1,382.8439,1.0,887.0,-339.0,1,1
229,383.5894,-26765.7990,-26382.2095,26766.4159,384.2064,0.3001,384.5065,0.3668,-275,0.05,275,0.2421,0;0.5;0,1,384.1278,1.0,887.0,-333.0,1,1
230,384.8733,-26767.0828,-26382.2095,26767.7331,385.5236,0.3001,385.8237,0.3668,-275,0.05,275,0.6,0;0.5;0,1,385.4452,1.0,884.0,-338.0,1,1
231,386.1905,-26768.4000,-26382.2095,26768.9836,386.7741,0.3001,387.0742,0.3668,-275,0.05,275,0.0529,0;0.5;0,1,386.6872,1.0,884.0,-345.0,1,1
232,387.4410,-26769.6505,-26382.2095,26770.3842,388.1746,0.3001,388.4748,0.3668,275,0.45,-275,0.5171,1;0;0,0,388.0880,1.0,889.0,-340.0,1,0
233,388.8416,-26771.0511,-26382.2095,26771.7681,389.5585,0.3001,389.8587,0.3668,-275,0.2,275,0.2671,0;0.5;0,1,389.4800,1.0,893.0,-316.0,1,1
234,390.2255,-26772.4350,-26382.2095,26773.0019,390.7924,0.3001,391.0925,0.3668,-275,0.2,275,0.75,0;0.5;0,1,390.7139,1.0,894.0,-321.0,1,1
235,391.4593,-26773.6688,-26382.2095,26774.0690,391.8595,0.3001,392.1596,0.3668,-275,0.0088,275,0.0098,0;0.5;0,1,391.7726,1.0,882.0,-340.0,1,1
236,392.5264,-26774.7359,-26382.2095,26775.3195,393.1100,0.3001,393.4101,0.3668,275,0.45,-275,0.4582,1;0;0,0,393.0231,1.0,888.0,-335.0,1,0
237,393.7769,-26775.9864,-26382.2095,26776.6534,394.4438,0.3001,394.7440,0.3668,-275,0.0088,275,0.0759,0;0.5;0,1,394.3569,1.0,887.0,-323.0,1,1
238,395.1108,-26777.3203,-26382.2095,26777.8872,395.6777,0.3001,395.9778,0.3668,-275,0.0088,275,0.0323,0;0.5;0,1,395.5990,1.0,893.0,-334.0,1,1
239,396.3446,-26778.5542,-26382.2095,26779.2544,397.0449,0.3001,397.3450,0.3668,275,0,-275,0.0029,1;0;0,0,396.9663,1.0,882.0,-340.0,1,0
240,397.7118,-26779.9214,-26382.2095,26780.5383,398.3288,0.3001,398.6289,0.3668,275,0.45,-275,0.4582,1;0;0,0,398.2420,1.0,907.0,-311.0,1,0
241,398.9957,-26781.2052,-26382.2095,26781.7054,399.4959,0.3001,399.7960,0.3668,-275,0.0167,275,0.2088,0;0.5;0,1,399.4173,1.0,905.0,-317.0,1,1
242,400.1628,-26782.3724,-26382.2095,26782.9059,400.6964,0.3001,400.9965,0.3668,275,0.2,-275,1,0;0.5;0,0,400.6178,0.0,-970.0,-345.0,1,1
243,401.3633,-26783.5729,-26382.2095,26784.1398,401.9302,0.3001,402.2303,0.3668,-275,0,275,0.1921,0;0.5;0,1,401.8519,1.0,901.0,-323.0,1,1
244,402.5972,-26784.8067,-26382.2095,26785.5403,403.3308,0.3001,403.6309,0.3668,275,0.45,-275,0.5171,1;0;0,0,403.2440,1.0,902.0,-324.0,1,0
245,403.9977,-26786.2073,-26382.2095,26787.8246,405.6150,0.3001,405.9152,0.3668,275,0,-275,0.0082,1;0;0,0,405.5281,1.0,893.0,-335.0,1,0
246,406.2820,-26788.4915,-26382.2095,26789.0918,406.8822,0.3001,407.1824,0.3668,275,0.2,-275,0.2082,1;0;0,0,406.8037,1.0,896.0,-327.0,1,0
247,407.5492,-26789.7587,-26382.2095,26790.2923,408.0827,0.3001,408.3828,0.3668,275,0.2,-275,0.75,0;0.5;0,0,407.9957,0.0,-947.0,-339.0,1,1
248,408.7497,-26790.9592,-26382.2095,26791.8262,409.6167,0.3001,409.9168,0.3668,-275,0.0167,275,0.0838,0;0.5;0,1,409.5380,1.0,892.0,-331.0,1,1
249,410.2836,-26792.4932,-26382.2095,26793.2935,411.0839,0.3001,411.3841,0.3668,-275,0.0167,275,0.0177,0;0.5;0,1,411.0054,1.0,889.0,-335.0,1,1
250,411.7509,-26793.9604,-26382.2095,26794.7774,412.5679,0.3001,412.8680,0.3668,275,0.0088,-275,0.017,1;0;0,0,412.4810,1.0,890.0,-334.0,1,0
251,413.2348,-26795.4444,-26382.2095,26795.9779,413.7684,0.3001,414.0685,0.3668,275,0.05,-275,0.2421,0;0.5;0,0,413.6899,0.0,-956.0,-340.0,1,1
252,414.4353,-26796.6448,-26382.2095,26797.9454,415.7358,0.3001,416.0359,0.3668,-275,0.0088,275,0.0098,1;0;0,1,415.6491,0.0,-956.0,-344.0,1,0
253,416.4028,-26798.6123,-26382.2095,26799.0458,416.8363,0.3001,417.1364,0.3668,275,0,-275,0.001,1;0;0,0,416.7576,1.0,888.0,-336.0,1,0
254,417.5032,-26799.7128,-26382.2095,26800.2130,418.0034,0.3001,418.3035,0.3668,-275,0.2,275,0.75,0;0.5;0,1,417.9248,1.0,892.0,-331.0,1,1
255,418.6704,-26800.8799,-26382.2095,26804.3646,422.1551,0.3001,422.4552,0.3668,275,0,-275,0.0235,1;0;0,0,422.0684,1.0,888.0,-333.0,1,0
256,422.8220,-26805.0316,-26382.2095,26805.7485,423.5390,0.3001,423.8391,0.3668,275,0.2,-275,0.2671,1;0;0,0,423.4520,1.0,894.0,-325.0,1,0
257,424.2059,-26806.4155,-26382.2095,26807.0491,424.8395,0.3001,425.1396,0.3668,-275,0.2,275,0.2082,0;0.5;0,1,424.7608,1.0,898.0,-326.0,1,1
258,425.5065,-26807.7160,-26382.2095,26808.2496,426.0400,0.3001,426.3401,0.3668,-275,0.05,275,0.1171,0;0.5;0,1,425.9532,1.0,902.0,-325.0,1,1
259,426.7069,-26808.9165,-26382.2095,26809.6501,427.4406,0.3001,427.7407,0.3668,275,0.45,-275,0.4582,0;0.5;0,0,427.3538,0.0,-961.0,-342.0,1,1
260,428.1075,-26810.3171,-26382.2095,26811.3508,429.1413,0.3001,429.4414,0.3668,275,0,-275,0.0029,1;0;0,0,429.0542,1.0,889.0,-336.0,1,0
261,429.8082,-26812.0177,-26382.2095,26812.8848,430.6752,0.3001,430.9753,0.3668,-275,0.0088,275,0.0117,1;0;0,1,430.5885,0.0,-961.0,-340.0,1,0
262,431.3422,-26813.5517,-26382.2095,26814.0853,431.8757,0.3001,432.1758,0.3668,-275,0.2,275,0.2671,0;0.5;0,1,431.7972,1.0,898.0,-332.0,1,1
263,432.5427,-26814.7522,-26382.2095,26815.7526,433.5431,0.3001,433.8432,0.3668,-275,0,275,0.0082,0;0.5;0,1,433.4563,1.0,887.0,-346.0,1,1
264,434.2100,-26816.4195,-26382.2095,26816.9864,434.7769,0.3001,435.0770,0.3668,275,0.2,-275,1,0;0.5;0,0,434.6899,0.0,-962.0,-327.0,1,1
265,435.4438,-26817.6534,-26382.2095,26821.0214,438.8119,0.3001,439.1120,0.3668,-275,0.0088,275,0.0117,0;0.5;0,1,438.7250,1.0,889.0,-341.0,1,1
266,439.4788,-26821.6883,-26382.2095,26822.6887,440.4792,0.3001,440.7793,0.3668,275,0.0167,-275,0.0249,1;0;0,0,440.4006,1.0,888.0,-342.0,1,0
267,441.1461,-26823.3557,-26382.2095,26824.1060,441.8964,0.3001,442.1966,0.3668,275,0.2,-275,0.2235,1;0;0,0,441.8097,1.0,889.0,-341.0,1,0
268,442.5634,-26824.7729,-26382.2095,26825.1397,442.9302,0.3001,443.2303,0.3668,-275,0,275,0.0671,0;0.5;0,1,442.8432,1.0,883.0,-348.0,1,1
269,443.5971,-26825.8067,-26382.2095,26826.2569,444.0473,0.3001,444.3474,0.3668,-275,0.0088,275,0.0759,0;0.5;0,1,443.9605,1.0,884.0,-349.0,1,1
270,444.7143,-26826.9238,-26382.2095,26827.9909,445.7814,0.3001,446.0815,0.3668,275,0.45,-275,0.6421,1;0;0,0,445.6944,1.0,889.0,-341.0,1,0
271,446.4483,-26828.6578,-26382.2095,26830.8921,448.6825,0.3001,448.9827,0.3668,-275,0.05,275,0.2421,0;0.5;0,1,448.6039,1.0,890.0,-359.0,1,1
272,449.3495,-26831.5590,-26382.2095,26832.4094,450.1998,0.3001,450.4999,0.3668,275,0.45,-275,0.5171,0;0.5;0,0,450.1128,0.0,-968.0,-319.0,1,1
273,450.8668,-26833.0763,-26382.2095,26833.6765,451.4670,0.3001,451.7671,0.3668,275,0.05,-275,0.0529,1;0;0,0,451.3800,1.0,889.0,-363.0,1,0
274,452.1339,-26834.3435,-26382.2095,26835.7607,453.5512,0.3001,453.8513,0.3668,275,0,-275,0.001,0;0.5;0,0,453.4643,0.0,-967.0,-342.0,1,1
275,454.2181,-26836.4277,-26382.2095,26837.1613,454.9517,0.3001,455.2519,0.3668,275,0.2,-275,0.2235,1;0;0,0,454.8732,1.0,894.0,-354.0,1,0
276,455.6187,-26837.8282,-26382.2095,26838.9787,456.7692,0.3001,457.0693,0.3668,-275,0,275,0.0082,1;0;0,1,456.6822,0.0,-959.0,-340.0,1,0
277,457.4361,-26839.6456,-26382.2095,26842.1967,459.9871,0.3001,460.2872,0.3668,-275,0.0167,275,0.0196,0;0.5;0,1,459.9003,1.0,884.0,-332.0,1,1
278,460.6541,-26842.8636,-26382.2095,26843.5139,461.3043,0.3001,461.6044,0.3668,-275,0.2,275,0.3921,0;0.5;0,1,461.2257,1.0,885.0,-335.0,1,1
279,461.9713,-26844.1808,-26382.2095,26844.7477,462.5382,0.3001,462.8383,0.3668,-275,0.2,275,0.3921,0;0.5;0,1,462.4513,1.0,882.0,-341.0,1,1
280,463.2051,-26845.4146,-26382.2095,26846.0649,463.8554,0.3001,464.1555,0.3668,-275,0,275,0.0671,0;0.5;0,1,463.7768,1.0,879.0,-339.0,1,1
281,464.5223,-26846.7318,-26382.2095,26847.5488,465.3393,0.3001,465.6394,0.3668,275,0.2,-275,0.2671,1;0;0,0,465.2523,1.0,878.0,-346.0,1,0
282,466.0062,-26848.2158,-26382.2095,26848.8494,466.6398,0.3001,466.9399,0.3668,-275,0.05,275,0.1171,0;0.5;0,1,466.5530,1.0,882.0,-341.0,1,1
283,467.3068,-26849.5163,-26382.2095,26850.2833,468.0737,0.3001,468.3739,0.3668,275,0.0167,-275,0.0838,1;0;0,0,467.9953,1.0,884.0,-340.0,1,0
284,468.7407,-26850.9502,-26382.2095,26851.4671,469.2576,0.3001,469.5577,0.3668,275,0.0167,-275,0.2088,0;0.5;0,0,469.1791,0.0,-976.0,-330.0,1,1
285,469.9245,-26852.1340,-26382.2095,26853.2678,471.0583,0.3001,471.3584,0.3668,-275,0.0167,275,0.0196,1;0;0,1,470.9714,0.0,-965.0,-340.0,1,0
286,471.7252,-26853.9348,-26382.2095,26854.9018,472.6923,0.3001,472.9924,0.3668,275,0.45,-275,0.5171,1;0;0,0,472.6053,1.0,884.0,-344.0,1,0
287,473.3592,-26855.5688,-26382.2095,26856.1190,473.9094,0.3001,474.2096,0.3668,275,0,-275,0.0671,0;0.5;0,0,473.8227,0.0,-966.0,-340.0,1,1
288,474.5764,-26856.7859,-26382.2095,26857.3195,475.1099,0.3001,475.4101,0.3668,275,0.45,-275,1,0;0.5;0,0,475.0231,0.0,-971.0,-335.0,1,1
289,475.7769,-26857.9864,-26382.2095,26859.0368,476.8273,0.3001,477.1274,0.3668,275,0.0167,-275,0.0196,1;0;0,0,476.7488,1.0,879.0,-357.0,1,0
290,477.4942,-26859.7038,-26382.2095,26860.5041,478.2946,0.3001,478.5947,0.3668,-275,0.45,275,0.4582,1;0;0,1,478.2077,0.0,-973.0,-332.0,1,0
291,478.9615,-26861.1710,-26382.2095,26861.6546,479.4450,0.3001,479.7451,0.3668,275,0.2,-275,0.2082,1;0;0,0,479.3664,1.0,888.0,-335.0,1,0
292,480.1120,-26862.3215,-26382.2095,26862.8384,480.6288,0.3001,480.9290,0.3668,-275,0.05,275,0.0529,1;0;0,1,480.5503,0.0,-976.0,-325.0,1,0
293,481.2958,-26863.5053,-26382.2095,26863.9222,481.7126,0.3001,482.0127,0.3668,-275,0.0167,275,0.0402,0;0.5;0,1,481.6341,1.0,886.0,-334.0,1,1
294,482.3795,-26864.5891,-26382.2095,26865.2727,483.0632,0.3001,483.3633,0.3668,275,0.05,-275,0.0735,1;0;0,0,482.9847,1.0,888.0,-330.0,1,0
295,483.7301,-26865.9396,-26382.2095,26866.5566,484.3470,0.3001,484.6471,0.3668,275,0.45,-275,0.4735,0;0.5;0,0,484.2602,0.0,-985.0,-302.0,1,1
296,485.0140,-26867.2235,-26382.2095,26867.6570,485.4475,0.3001,485.7476,0.3668,275,0.05,-275,0.0582,1;0;0,0,485.3690,1.0,890.0,-377.0,1,0
297,486.1144,-26868.3239,-26382.2095,26868.6741,486.4645,0.3001,486.7647,0.3668,275,0.45,-275,0.4582,0;0.5;0,0,486.3861,0.0,-961.0,-329.0,1,1
298,487.1315,-26869.3410,-26382.2095,26869.8579,487.6484,0.3001,487.9485,0.3668,275,0.2,-275,0.75,0;0.5;0,0,487.5615,0.0,-969.0,-329.0,1,1
299,488.3153,-26870.5248,-26382.2095,26871.3085,489.0989,0.3001,489.3991,0.3668,-275,0.45,275,0.4735,1;0;0,1,489.0121,0.0,-971.0,-318.0,1,0
300,489.7659,-26871.9754,-26382.2095,26873.2426,491.0331,0.3001,491.3332,0.3668,275,0.0088,-275,0.0323,1;0;0,0,490.9546,1.0,877.0,-356.0,1,0
301,491.7000,-26873.9095,-26382.2095,26874.4431,492.2335,0.3001,492.5337,0.3668,275,0.0167,-275,0.0838,0;0.5;0,0,492.1549,0.0,-975.0,-301.0,1,1
302,492.9005,-26875.1100,-26382.2095,26875.7936,493.5841,0.3001,493.8842,0.3668,275,0.0088,-275,0.0098,0;0.5;0,0,493.4972,0.0,-981.0,-304.0,1,1
303,494.2510,-26876.4606,-26382.2095,26877.3943,495.1847,0.3001,495.4849,0.3668,275,0.0088,-275,0.2009,0;0.5;0,0,495.1062,0.0,-967.0,-310.0,1,1
304,495.8517,-26878.0612,-26382.2095,26878.7949,496.5853,0.3001,496.8854,0.3668,275,0,-275,0.1921,0;0.5;0,0,496.5069,0.0,-961.0,-321.0,1,1
305,497.2522,-26879.4618,-26382.2095,26880.2788,498.0692,0.3001,498.3694,0.3668,275,0.2,-275,0.2235,0;0.5;0,0,497.9908,0.0,-961.0,-321.0,1,1
306,498.7362,-26880.9457,-26382.2095,26881.9628,499.7533,0.3001,500.0534,0.3668,-275,0,275,0.001,1;0;0,1,499.6666,0.0,-958.0,-326.0,1,0
307,500.4202,-26882.6297,-26382.2095,26882.9132,500.7037,0.3001,501.0038,0.3668,-275,0.0088,275,0.2009,0;0.5;0,1,500.6168,1.0,911.0,-340.0,1,1
308,501.3706,-26883.5801,-26382.2095,26884.1304,501.9208,0.3001,502.2209,0.3668,-275,0.45,275,0.4735,0;0.5;0,1,501.8339,1.0,905.0,-345.0,1,1
309,502.5877,-26884.7973,-26382.2095,26885.2975,503.0880,0.3001,503.3881,0.3668,-275,0.05,275,0.0529,0;0.5;0,1,503.0095,1.0,906.0,-338.0,1,1
310,503.7549,-26885.9644,-26382.2095,26886.8815,504.6719,0.3001,504.9720,0.3668,275,0.0167,-275,0.0177,1;0;0,0,504.5935,1.0,904.0,-341.0,1,0
311,505.3389,-26887.5484,-26382.2095,26889.0990,506.8895,0.3001,507.1896,0.3668,275,0.0167,-275,0.0196,1;0;0,0,506.8028,1.0,915.0,-340.0,1,0
312,507.5564,-26889.7660,-26382.2095,26890.2995,508.0900,0.3001,508.3901,0.3668,275,0.0088,-275,0.0323,0;0.5;0,0,508.0115,0.0,-983.0,-320.0,1,1
313,508.7569,-26890.9665,-26382.2095,26891.7168,509.5072,0.3001,509.8073,0.3668,-275,0.45,275,0.4582,0;0.5;0,1,509.4204,1.0,904.0,-349.0,1,1
314,510.1742,-26892.3837,-26382.2095,26893.0840,510.8744,0.3001,511.1746,0.3668,275,0.05,-275,0.2421,0;0.5;0,0,510.7960,0.0,-1004.0,-320.0,1,1
315,511.5414,-26893.7509,-26382.2095,26894.2511,512.0416,0.3001,512.3417,0.3668,-275,0.0167,275,0.2088,0;0.5;0,1,511.9547,1.0,911.0,-343.0,1,1
316,512.7085,-26894.9181,-26382.2095,26895.8851,513.6756,0.3001,513.9757,0.3668,-275,0.45,275,0.4735,0;0.5;0,1,513.5889,1.0,903.0,-323.0,1,1
317,514.3425,-26896.5521,-26382.2095,26897.1690,514.9594,0.3001,515.2596,0.3668,275,0.0167,-275,0.2088,0;0.5;0,0,514.8726,0.0,-1001.0,-321.0,1,1
318,515.6264,-26897.8359,-26382.2095,26898.3695,516.1599,0.3001,516.4600,0.3668,275,0.05,-275,0.6,0;0.5;0,0,516.0730,0.0,-1010.0,-315.0,1,1
319,516.8269,-26899.0364,-26382.2095,26899.9034,517.6939,0.3001,517.9940,0.3668,275,0.05,-275,0.0529,1;0;0,0,517.6069,1.0,903.0,-333.0,1,0
320,518.3608,-26900.5704,-26382.2095,26901.3373,519.1278,0.3001,519.4279,0.3668,275,0.45,-275,0.4735,0;0.5;0,0,519.0410,0.0,-1000.0,-316.0,1,1
321,519.7947,-26902.0043,-26382.2095,26902.6879,520.4783,0.3001,520.7785,0.3668,-275,0,275,0.0082,1;0;0,1,520.3997,0.0,-1003.0,-317.0,1,0
322,521.1453,-26903.3548,-26382.2095,26903.8884,521.6788,0.3001,521.9789,0.3668,275,0.0167,-275,0.0177,1;0;0,0,521.5919,1.0,906.0,-327.0,1,0
323,522.3458,-26904.5553,-26382.2095,26904.6887,522.4792,0.3001,522.7793,0.3668,275,0.0088,-275,0.0759,0;0.5;0,0,522.3922,0.0,-1007.0,-311.0,1,1
324,523.1461,-26905.3556,-26382.2095,26905.9392,523.7297,0.3001,524.0298,0.3668,-275,0.0088,275,0.2009,0;0.5;0,1,523.6430,1.0,917.0,-311.0,1,1
325,524.3966,-26906.6061,-26382.2095,26907.3731,525.1636,0.3001,525.4637,0.3668,275,0.45,-275,0.4582,1;0;0,0,525.0768,1.0,909.0,-321.0,1,0
326,525.8305,-26908.0401,-26382.2095,26908.7570,526.5475,0.3001,526.8476,0.3668,-275,0.05,275,0.1171,0;0.5;0,1,526.4606,1.0,905.0,-326.0,1,1
327,527.2144,-26909.4239,-26382.2095,26910.3743,528.1648,0.3001,528.4649,0.3668,275,0.0167,-275,0.0196,1;0;0,0,528.0778,1.0,900.0,-323.0,1,0
328,528.8317,-26911.0413,-26382.2095,26911.6248,529.4153,0.3001,529.7154,0.3668,-275,0.2,275,0.3921,0;0.5;0,1,529.3285,1.0,908.0,-321.0,1,1
329,530.0822,-26912.2918,-26382.2095,26915.2763,533.0668,0.3001,533.3669,0.3668,-275,0.0088,275,0.0098,1;0;0,1,532.9883,0.0,-988.0,-329.0,1,0
330,533.7337,-26915.9433,-26382.2095,26916.2767,534.0672,0.3001,534.3673,0.3668,-275,0.2,275,0.75,0;0.5;0,1,533.9802,1.0,904.0,-321.0,1,1
331,534.7341,-26916.9437,-26382.2095,26917.4605,535.2510,0.3001,535.5511,0.3668,-275,0.0167,275,0.2088,0;0.5;0,1,535.1642,1.0,908.0,-333.0,1,1
332,535.9179,-26918.1275,-26382.2095,26918.7277,536.5182,0.3001,536.8183,0.3668,-275,0.0088,275,0.017,0;0.5;0,1,536.4314,1.0,913.0,-329.0,1,1
333,537.1851,-26919.3947,-26382.2095,26919.9782,537.7687,0.3001,538.0688,0.3668,-275,0.05,275,0.0735,0;0.5;0,1,537.6818,1.0,904.0,-331.0,1,1
334,538.4356,-26920.6452,-26382.2095,26921.1787,538.9692,0.3001,539.2693,0.3668,-275,0.45,275,1,0;0.5;0,1,538.8824,1.0,904.0,-330.0,1,1
335,539.6361,-26921.8457,-26382.2095,26922.3292,540.1196,0.3001,540.4198,0.3668,-275,0.0088,275,0.2009,0;0.5;0,1,540.0328,1.0,908.0,-321.0,1,1
336,540.7866,-26922.9961,-26382.2095,26923.7631,541.5536,0.3001,541.8537,0.3668,275,0.45,-275,0.6421,1;0;0,0,541.4666,1.0,915.0,-317.0,1,0
337,542.2205,-26924.4300,-26382.2095,26925.1303,542.9208,0.3001,543.2209,0.3668,-275,0.45,275,0.6421,0;0.5;0,1,542.8339,1.0,903.0,-325.0,1,1
338,543.5877,-26925.7973,-26382.2095,26926.3642,544.1546,0.3001,544.4547,0.3668,-275,0.2,275,0.2082,0;0.5;0,1,544.0678,1.0,898.0,-327.0,1,1
339,544.8215,-26927.0311,-26382.2095,26928.2316,546.0220,0.3001,546.3222,0.3668,275,0,-275,0.0029,1;0;0,0,545.9434,1.0,902.0,-324.0,1,0
340,546.6890,-26928.8985,-26382.2095,26929.8489,547.6394,0.3001,547.9395,0.3668,275,0.0167,-275,0.0196,0;0.5;0,0,547.5524,0.0,-958.0,-309.0,1,1
341,548.3063,-26930.5158,-26382.2095,26931.1328,548.9232,0.3001,549.2233,0.3668,-275,0.2,275,0.2082,0;0.5;0,1,548.8365,1.0,901.0,-325.0,1,1
342,549.5901,-26931.7997,-26382.2095,26932.3166,550.1070,0.3001,550.4071,0.3668,-275,0.45,275,1,0;0.5;0,1,550.0283,1.0,921.0,-316.0,1,1
343,550.7740,-26932.9835,-26382.2095,26933.4337,551.2241,0.3001,551.5243,0.3668,-275,0.0167,275,0.2088,0;0.5;0,1,551.1373,1.0,905.0,-326.0,1,1
344,551.8911,-26934.1006,-26382.2095,26937.3519,555.1424,0.3001,555.4425,0.3668,-275,0.0088,275,0.0098,0;0.5;0,1,555.0639,1.0,898.0,-331.0,1,1
345,555.8093,-26938.0189,-26382.2095,26939.3027,557.0932,0.3001,557.3933,0.3668,275,0.0167,-275,0.0402,1;0;0,0,557.0148,1.0,903.0,-330.0,1,0
346,557.7601,-26939.9697,-26382.2095,26940.5032,558.2937,0.3001,558.5938,0.3668,-275,0.2,275,1,0;0.5;0,1,558.2068,1.0,910.0,-322.0,1,1
347,558.9606,-26941.1702,-26382.2095,26941.9371,559.7276,0.3001,560.0277,0.3668,275,0.2,-275,0.3921,0;0.5;0,0,559.6491,0.0,-960.0,-311.0,1,1
348,560.3945,-26942.6041,-26382.2095,26943.2543,561.0448,0.3001,561.3449,0.3668,275,0.2,-275,0.75,0;0.5;0,0,560.9579,0.0,-966.0,-304.0,1,1
349,561.7117,-26943.9213,-26382.2095,26944.4048,562.1953,0.3001,562.4954,0.3668,275,0.05,-275,0.0735,0;0.5;0,0,562.1168,0.0,-962.0,-311.0,1,1
350,562.8622,-26945.0717,-26382.2095,26945.8054,563.5958,0.3001,563.8960,0.3668,275,0.2,-275,0.2671,0;0.5;0,0,563.5091,0.0,-967.0,-317.0,1,1
351,564.2628,-26946.4723,-26382.2095,26947.4227,565.2132,0.3001,565.5133,0.3668,275,0.05,-275,0.0582,0;0.5;0,0,565.1345,0.0,-967.0,-318.0,1,1
352,565.8801,-26948.0896,-26382.2095,26948.8233,566.6137,0.3001,566.9138,0.3668,-275,0.05,275,0.0529,1;0;0,1,566.5270,0.0,-994.0,-289.0,1,0
353,567.2807,-26949.4902,-26382.2095,26950.5740,568.3644,0.3001,568.6646,0.3668,275,0.0088,-275,0.0117,1;0;0,0,568.2777,1.0,842.0,-308.0,1,0
354,569.0314,-26951.2409,-26382.2095,26951.3910,569.1814,0.3001,569.4816,0.3668,-275,0.0088,275,0.0323,1;0;0,1,569.0946,0.0,-978.0,-286.0,1,0
355,569.8484,-26952.0579,-26382.2095,26952.9916,570.7821,0.3001,571.0822,0.3668,275,0.2,-275,0.3921,1;0;0,0,570.7034,1.0,847.0,-313.0,1,0
356,571.4490,-26953.6586,-26382.2095,26954.9424,572.7329,0.3001,573.0330,0.3668,275,0.05,-275,0.1171,0;0.5;0,0,572.6462,0.0,-976.0,-283.0,1,1
357,573.3998,-26955.6093,-26382.2095,26956.2096,574.0000,0.3001,574.3002,0.3668,275,0.45,-275,0.6421,0;0.5;0,0,573.9131,0.0,-987.0,-283.0,1,1
358,574.6670,-26956.8765,-26382.2095,26957.6102,575.4006,0.3001,575.7007,0.3668,-275,0.45,275,0.4582,1;0;0,1,575.3222,0.0,-962.0,-287.0,1,0
359,576.0676,-26958.2771,-26382.2095,26960.2612,578.0517,0.3001,578.3518,0.3668,-275,0.0088,275,0.0117,0;0.5;0,1,577.9731,1.0,845.0,-324.0,1,1
360,578.7186,-26960.9282,-26382.2095,26961.4951,579.2855,0.3001,579.5856,0.3668,-275,0.0167,275,0.0249,0;0.5;0,1,579.2070,1.0,849.0,-319.0,1,1
361,579.9525,-26962.1620,-26382.2095,26962.8456,580.6361,0.3001,580.9362,0.3668,275,0.0167,-275,0.0402,1;0;0,0,580.5492,1.0,852.0,-315.0,1,0
362,581.3030,-26963.5126,-26382.2095,26964.1795,581.9699,0.3001,582.2701,0.3668,275,0.45,-275,1,0;0.5;0,0,581.8916,0.0,-971.0,-270.0,1,1
363,582.6369,-26964.8464,-26382.2095,26966.5638,584.3542,0.3001,584.6544,0.3668,-275,0.0088,275,0.0098,1;0;0,1,584.2758,0.0,-983.0,-268.0,1,0
364,585.0212,-26967.2307,-26382.2095,26967.7976,585.5881,0.3001,585.8882,0.3668,275,0.0167,-275,0.0838,1;0;0,0,585.5011,1.0,852.0,-317.0,1,0
365,586.2550,-26968.4646,-26382.2095,26968.5479,586.3384,0.3001,586.6385,0.3668,275,0.2,-275,1,1;0;0,0,586.2598,1.0,849.0,-318.0,1,0
366,587.0053,-26969.2149,-26382.2095,26969.6650,587.4555,0.3001,587.7556,0.3668,-275,0.0167,275,0.0177,1;0;0,1,587.3771,0.0,-980.0,-272.0,1,0
367,588.1224,-26970.3320,-26382.2095,26974.3670,592.1574,0.3001,592.4575,0.3668,-275,0.0088,275,0.0117,1;0;0,1,592.0706,0.0,-968.0,-267.0,1,0
368,592.8243,-26975.0339,-26382.2095,26975.7508,593.5413,0.3001,593.8414,0.3668,275,0.0088,-275,0.0323,0;0.5;0,0,593.4629,0.0,-975.0,-273.0,1,1
369,594.2082,-26976.4178,-26382.2095,26977.0514,594.8418,0.3001,595.1420,0.3668,-275,0.45,275,0.4735,0;0.5;0,1,594.7548,1.0,855.0,-321.0,1,1
370,595.5088,-26977.7183,-26382.2095,26978.4019,596.1924,0.3001,596.4925,0.3668,275,0.2,-275,0.3921,0;0.5;0,0,596.1139,0.0,-982.0,-281.0,1,1
371,596.8593,-26979.0689,-26382.2095,26979.6358,597.4262,0.3001,597.7263,0.3668,275,0.2,-275,1,0;0.5;0,0,597.3476,0.0,-990.0,-282.0,1,1
372,598.0932,-26980.3027,-26382.2095,26980.9530,598.7434,0.3001,599.0435,0.3668,275,0.0088,-275,0.0759,0;0.5;0,0,598.6565,0.0,-1004.0,-273.0,1,1
373,599.4104,-26981.6199,-26382.2095,26982.2535,600.0439,0.3001,600.3441,0.3668,275,0.0167,-275,0.2088,0;0.5;0,0,599.9572,0.0,-995.0,-268.0,1,1
374,600.7109,-26982.9204,-26382.2095,26983.2706,601.0610,0.3001,601.3611,0.3668,275,0.0088,-275,0.0117,1;0;0,0,600.9741,1.0,855.0,-318.0,1,0
375,601.7280,-26983.9375,-26382.2095,26984.3710,602.1615,0.3001,602.4616,0.3668,275,0,-275,0.0029,1;0;0,0,602.0745,1.0,851.0,-311.0,1,0
376,602.8284,-26985.0379,-26382.2095,26985.2047,602.9951,0.3001,603.2953,0.3668,275,0.05,-275,0.0582,0;0.5;0,0,602.9082,0.0,-985.0,-263.0,1,1
377,603.6621,-26985.8716,-26382.2095,26986.5552,604.3457,0.3001,604.6458,0.3668,275,0.0167,-275,0.0838,0;0.5;0,0,604.2671,0.0,-985.0,-278.0,1,1
378,605.0126,-26987.2222,-26382.2095,26987.8057,605.5962,0.3001,605.8963,0.3668,275,0.2,-275,0.2082,0;0.5;0,0,605.5093,0.0,-986.0,-280.0,1,1
379,606.2631,-26988.4727,-26382.2095,26989.4231,607.2135,0.3001,607.5136,0.3668,-275,0.0167,275,0.2088,0;0.5;0,1,607.1267,1.0,861.0,-306.0,1,1
380,607.8805,-26990.0900,-26382.2095,26991.0737,608.8642,0.3001,609.1643,0.3668,275,0.0167,-275,0.0177,1;0;0,0,608.7855,1.0,860.0,-323.0,1,0
381,609.5311,-26991.7407,-26382.2095,26992.3242,610.1147,0.3001,610.4148,0.3668,-275,0.0088,275,0.017,1;0;0,1,610.0279,0.0,-981.0,-275.0,1,0
382,610.7816,-26992.9912,-26382.2095,26995.5089,613.2993,0.3001,613.5994,0.3668,275,0.05,-275,0.0735,1;0;0,0,613.2209,1.0,852.0,-304.0,1,0
383,613.9663,-26996.1758,-26382.2095,26997.0261,614.8166,0.3001,615.1167,0.3668,-275,0.2,275,0.2671,0;0.5;0,1,614.7296,1.0,863.0,-297.0,1,1
384,615.4835,-26997.6931,-26382.2095,26998.2433,616.0338,0.3001,616.3339,0.3668,-275,0.0088,275,0.2009,0;0.5;0,1,615.9469,1.0,858.0,-296.0,1,1
385,616.7007,-26998.9102,-26382.2095,26999.7106,617.5010,0.3001,617.8011,0.3668,275,0.0167,-275,0.0249,1;0;0,0,617.4226,1.0,860.0,-287.0,1,0
386,618.1680,-27000.3775,-26382.2095,27004.9627,622.7532,0.3001,623.0533,0.3668,-275,0.0167,275,0.0177,1;0;0,1,622.6746,0.0,-974.0,-288.0,1,0
387,623.4201,-27005.6296,-26382.2095,27006.2465,624.0370,0.3001,624.3371,0.3668,275,0.45,-275,0.6421,1;0;0,0,623.9502,1.0,949.0,-328.0,1,0
388,624.7039,-27006.9135,-26382.2095,27007.5304,625.3209,0.3001,625.6210,0.3668,-275,0.0167,275,0.0402,0;0.5;0,1,625.2339,1.0,955.0,-333.0,1,1
389,625.9878,-27008.1973,-26382.2095,27008.9310,626.7214,0.3001,627.0215,0.3668,275,0.0167,-275,0.0402,1;0;0,0,626.6430,1.0,946.0,-326.0,1,0
390,627.3884,-27009.5979,-26382.2095,27010.3982,628.1887,0.3001,628.4888,0.3668,275,0.0167,-275,0.0249,0;0.5;0,0,628.1102,0.0,-985.0,-287.0,1,1
391,628.8556,-27011.0652,-26382.2095,27011.7821,629.5726,0.3001,629.8727,0.3668,-275,0.0167,275,0.0249,1;0;0,1,629.4940,0.0,-987.0,-288.0,1,0
392,630.2395,-27012.4491,-26382.2095,27013.0326,630.8231,0.3001,631.1232,0.3668,275,0.05,-275,0.1171,1;0;0,0,630.7361,1.0,927.0,-319.0,1,0
393,631.4900,-27013.6996,-26382.2095,27014.1998,631.9902,0.3001,632.2903,0.3668,-275,0.2,275,0.3921,0;0.5;0,1,631.9116,1.0,931.0,-316.0,1,1
394,632.6572,-27014.8667,-26382.2095,27015.4669,633.2574,0.3001,633.5575,0.3668,275,0.2,-275,0.2082,1;0;0,0,633.1788,1.0,946.0,-302.0,1,0
395,633.9243,-27016.1339,-26382.2095,27016.8008,634.5913,0.3001,634.8914,0.3668,-275,0.0167,275,0.0249,0;0.5;0,1,634.5045,1.0,947.0,-304.0,1,1
396,635.2582,-27017.4678,-26382.2095,27018.6682,636.4587,0.3001,636.7588,0.3668,-275,0,275,0.0029,1;0;0,1,636.3719,0.0,-993.0,-291.0,1,0
397,637.1256,-27019.3352,-26382.2095,27019.9021,637.6925,0.3001,637.9927,0.3668,-275,0,275,0.0082,0;0.5;0,1,637.6142,1.0,939.0,-304.0,1,1
398,638.3595,-27020.5690,-26382.2095,27021.3360,639.1265,0.3001,639.4266,0.3668,275,0,-275,0.0671,1;0;0,0,639.0397,1.0,939.0,-294.0,1,0
399,639.7934,-27022.0029,-26382.2095,27022.5365,640.3269,0.3001,640.6271,0.3668,-275,0.05,275,0.2421,0;0.5;0,1,640.2485,1.0,942.0,-297.0,1,1
400,640.9939,-27023.2034,-26382.2095,27024.2872,642.0777,0.3001,642.3778,0.3668,275,0,-275,0.001,1;0;0,0,641.9907,1.0,943.0,-292.0,1,0
401,642.7446,-27024.9541,-26382.2095,27026.3380,644.1285,0.3001,644.4286,0.3668,-275,0,275,0.0235,1;0;0,1,644.0415,0.0,-980.0,-295.0,1,0
402,644.7954,-27027.0050,-26382.2095,27027.5385,645.3290,0.3001,645.6291,0.3668,-275,0.0167,275,0.0249,0;0.5;0,1,645.2505,1.0,936.0,-294.0,1,1
403,645.9959,-27028.2054,-26382.2095,27029.2725,647.0630,0.3001,647.3631,0.3668,-275,0,275,0.001,0;0.5;0,1,646.9761,1.0,930.0,-294.0,1,1
404,647.7299,-27029.9395,-26382.2095,27030.7231,648.5136,0.3001,648.8137,0.3668,275,0.45,-275,0.5171,1;0;0,0,648.4268,1.0,931.0,-295.0,1,0
405,649.1805,-27031.3901,-26382.2095,27031.8736,649.6641,0.3001,649.9642,0.3668,-275,0,275,0.1921,0;0.5;0,1,649.5772,1.0,928.0,-293.0,1,1
406,650.3310,-27032.5405,-26382.2095,27033.3242,651.1146,0.3001,651.4148,0.3668,275,0.45,-275,0.6421,1;0;0,0,651.0279,1.0,937.0,-291.0,1,0
407,651.7816,-27033.9911,-26382.2095,27035.2583,653.0488,0.3001,653.3489,0.3668,275,0.0167,-275,0.0402,1;0;0,0,652.9619,1.0,932.0,-297.0,1,0
408,653.7157,-27035.9252,-26382.2095,27036.3421,654.1325,0.3001,654.4327,0.3668,-275,0.0167,275,0.2088,0;0.5;0,1,654.0540,1.0,931.0,-303.0,1,1
409,654.7995,-27037.0090,-26382.2095,27039.5267,657.3172,0.3001,657.6173,0.3668,-275,0.0088,275,0.0323,0;0.5;0,1,657.2302,1.0,936.0,-298.0,1,1
410,657.9841,-27040.1936,-26382.2095,27042.8447,660.6352,0.3001,660.9353,0.3668,275,0.2,-275,0.2235,1;0;0,0,660.5482,1.0,939.0,-294.0,1,0
411,661.3021,-27043.5117,-26382.2095,27044.0619,661.8523,0.3001,662.1525,0.3668,275,0.05,-275,0.2421,0;0.5;0,0,661.7654,0.0,-985.0,-294.0,1,1
412,662.5193,-27044.7288,-26382.2095,27046.3461,664.1366,0.3001,664.4367,0.3668,-275,0,275,0.0029,0;0.5;0,1,664.0581,1.0,936.0,-301.0,1,1
413,664.8035,-27047.0131,-26382.2095,27047.7134,665.5038,0.3001,665.8039,0.3668,275,0.0088,-275,0.0117,1;0;0,0,665.4253,1.0,932.0,-300.0,1,0
414,666.1707,-27048.3803,-26382.2095,27048.9639,666.7543,0.3001,667.0544,0.3668,275,0.05,-275,0.0582,0;0.5;0,0,666.6675,0.0,-982.0,-292.0,1,1
415,667.4213,-27049.6308,-26382.2095,27050.2977,668.0882,0.3001,668.3883,0.3668,275,0.2,-275,0.2082,1;0;0,0,668.0015,1.0,934.0,-299.0,1,0
416,668.7551,-27050.9647,-26382.2095,27051.7483,669.5388,0.3001,669.8389,0.3668,-275,0,275,0.0029,1;0;0,1,669.4520,0.0,-982.0,-290.0,1,0
417,670.2057,-27052.4153,-26382.2095,27052.7487,670.5392,0.3001,670.8393,0.3668,275,0.0088,-275,0.0098,0;0.5;0,0,670.4606,0.0,-977.0,-295.0,1,1
418,671.2061,-27053.4157,-26382.2095,27053.9492,671.7397,0.3001,672.0398,0.3668,-275,0.2,275,0.75,0;0.5;0,1,671.6529,1.0,940.0,-295.0,1,1
419,672.4066,-27054.6162,-26382.2095,27055.2831,673.0735,0.3001,673.3737,0.3668,-275,0.0167,275,0.0838,0;0.5;0,1,672.9866,1.0,943.0,-286.0,1,1
420,673.7405,-27055.9500,-26382.2095,27056.7670,674.5575,0.3001,674.8576,0.3668,275,0.0088,-275,0.0759,0;0.5;0,0,674.4707,0.0,-987.0,-287.0,1,1
421,675.2244,-27057.4340,-26382.2095,27058.4177,676.2082,0.3001,676.5083,0.3668,275,0.45,-275,0.6421,1;0;0,0,676.1297,1.0,918.0,-292.0,1,0
422,676.8751,-27059.0846,-26382.2095,27059.5682,677.3586,0.3001,677.6587,0.3668,275,0,-275,0.1921,0;0.5;0,0,677.2720,0.0,-971.0,-301.0,1,1
423,678.0256,-27060.2351,-26382.2095,27061.0854,678.8759,0.3001,679.1760,0.3668,275,0.05,-275,0.1171,0;0.5;0,0,678.7974,0.0,-979.0,-286.0,1,1
424,679.5428,-27061.7524,-26382.2095,27062.6861,680.4765,0.3001,680.7767,0.3668,-275,0.0167,275,0.0402,1;0;0,1,680.3980,0.0,-985.0,-265.0,1,0
425,681.1435,-27063.3530,-26382.2095,27063.5031,681.2935,0.3001,681.5937,0.3668,-275,0.45,275,0.6421,0;0.5;0,1,681.2068,1.0,895.0,-278.0,1,1
426,681.9605,-27064.1700,-26382.2095,27067.1879,684.9784,0.3001,685.2785,0.3668,275,0,-275,0.0235,1;0;0,0,684.9000,1.0,908.0,-270.0,1,0
427,685.6453,-27067.8548,-26382.2095,27072.0566,689.8470,0.3001,690.1471,0.3668,-275,0,275,0.0029,1;0;0,1,689.7601,0.0,-972.0,-235.0,1,0
428,690.5139,-27072.7235,-26382.2095,27073.8073,691.5977,0.3001,691.8978,0.3668,275,0.0167,-275,0.0402,1;0;0,0,691.5109,1.0,884.0,-232.0,1,0
429,692.2647,-27074.4742,-26382.2095,27075.1745,692.9649,0.3001,693.2651,0.3668,275,0.0088,-275,0.0323,0;0.5;0,0,692.8781,0.0,-981.0,-255.0,1,1
430,693.6319,-27075.8414,-26382.2095,27076.4917,694.2821,0.3001,694.5823,0.3668,-275,0.45,275,1,0;0.5;0,1,694.2036,1.0,866.0,-248.0,1,1
431,694.9491,-27077.1586,-26382.2095,27077.8256,695.6160,0.3001,695.9161,0.3668,275,0.2,-275,0.2082,1;0;0,0,695.5374,1.0,889.0,-258.0,1,0
432,696.2830,-27078.4925,-26382.2095,27079.1094,696.8999,0.3001,697.2000,0.3668,275,0,-275,0.0671,0;0.5;0,0,696.8214,0.0,-981.0,-238.0,1,1
433,697.5668,-27079.7763,-26382.2095,27080.5100,698.3004,0.3001,698.6006,0.3668,-275,0.45,275,0.6421,0;0.5;0,1,698.2218,1.0,897.0,-242.0,1,1
434,698.9674,-27081.1769,-26382.2095,27081.8939,699.6843,0.3001,699.9845,0.3668,-275,0.2,275,0.2235,0;0.5;0,1,699.5975,1.0,889.0,-239.0,1,1
435,700.3513,-27082.5608,-26382.2095,27083.2778,701.0682,0.3001,701.3683,0.3668,275,0.2,-275,0.3921,1;0;0,0,700.9896,1.0,903.0,-239.0,1,0
436,701.7352,-27083.9447,-26382.2095,27084.5616,702.3521,0.3001,702.6522,0.3668,-275,0.0167,275,0.2088,0;0.5;0,1,702.2735,1.0,898.0,-238.0,1,1
437,703.0190,-27085.2286,-26382.2095,27087.5962,705.3866,0.3001,705.6868,0.3668,275,0,-275,0.001,0;0.5;0,0,705.2999,0.0,-1001.0,-239.0,1,1
438,706.0536,-27088.2631,-26382.2095,27090.1305,707.9210,0.3001,708.2211,0.3668,275,0,-275,0.001,0;0.5;0,0,707.8425,0.0,-993.0,-249.0,1,1
439,708.5879,-27090.7975,-26382.2095,27091.5311,709.3216,0.3001,709.6217,0.3668,275,0.0088,-275,0.0098,1;0;0,0,709.2430,1.0,915.0,-254.0,1,0
440,709.9885,-27092.1980,-26382.2095,27093.0484,710.8389,0.3001,711.1390,0.3668,-275,0.45,275,0.5171,0;0.5;0,1,710.7519,1.0,908.0,-239.0,1,1
441,711.5058,-27093.7153,-26382.2095,27094.2656,712.0560,0.3001,712.3561,0.3668,275,0.0167,-275,0.2088,1;0;0,0,711.9775,1.0,907.0,-243.0,1,0
442,712.7229,-27094.9325,-26382.2095,27095.5661,713.3565,0.3001,713.6567,0.3668,275,0.45,-275,0.4735,1;0;0,0,713.2778,1.0,901.0,-248.0,1,0
443,714.0235,-27096.2330,-26382.2095,27097.2167,715.0072,0.3001,715.3073,0.3668,275,0.45,-275,0.4735,1;0;0,0,714.9204,1.0,906.0,-239.0,1,0
444,715.6741,-27097.8837,-26382.2095,27098.4339,716.2244,0.3001,716.5245,0.3668,-275,0.45,275,1,0;0.5;0,1,716.1458,1.0,918.0,-215.0,1,1
445,716.8913,-27099.1008,-26382.2095,27099.5844,717.3748,0.3001,717.6750,0.3668,275,0.05,-275,0.0735,1;0;0,0,717.2878,1.0,924.0,-202.0,1,0
446,718.0418,-27100.2513,-26382.2095,27101.0683,718.8588,0.3001,719.1589,0.3668,-275,0.2,275,0.2082,0;0.5;0,1,718.7803,1.0,850.0,-177.0,1,1
447,719.5257,-27101.7352,-26382.2095,27105.9870,723.7774,0.3001,724.0775,0.3668,-275,0,275,0.0082,0;0.5;0,1,723.6990,1.0,882.0,-173.0,1,1
448,724.4444,-27106.6539,-26382.2095,27108.9882,726.7786,0.3001,727.0788,0.3668,-275,0.0088,275,0.0098,0;0.5;0,1,726.6920,1.0,879.0,-156.0,1,1
449,727.4456,-27109.6551,-26382.2095,27110.4388,728.2292,0.3001,728.5294,0.3668,275,0.45,-275,0.4735,1;0;0,0,728.1424,1.0,870.0,-160.0,1,0
450,728.8962,-27111.1057,-26382.2095,27111.7226,729.5131,0.3001,729.8132,0.3668,275,0.0088,-275,0.0759,0;0.5;0,0,729.4262,0.0,-956.0,-216.0,1,1
451,730.1800,-27112.3896,-26382.2095,27113.0565,730.8470,0.3001,731.1471,0.3668,-275,0.2,275,0.2671,0;0.5;0,1,730.7685,1.0,877.0,-163.0,1,1
452,731.5139,-27113.7234,-26382.2095,27114.5571,732.3476,0.3001,732.6477,0.3668,275,0.0088,-275,0.0759,0;0.5;0,0,732.2606,0.0,-958.0,-225.0,1,1
453,733.0145,-27115.2240,-26382.2095,27116.0077,733.7982,0.3001,734.0983,0.3668,-275,0.05,275,0.0529,0;0.5;0,1,733.7195,1.0,862.0,-152.0,1,1
454,734.4651,-27116.6746,-26382.2095,27117.3082,735.0987,0.3001,735.3988,0.3668,275,0.45,-275,0.4735,1;0;0,0,735.0200,1.0,865.0,-155.0,1,0
455,735.7656,-27117.9752,-26382.2095,27118.8922,736.6827,0.3001,736.9828,0.3668,275,0.2,-275,0.2235,1;0;0,0,736.6040,1.0,874.0,-150.0,1,0
456,737.3496,-27119.5591,-26382.2095,27120.0760,737.8665,0.3001,738.1666,0.3668,-275,0.2,275,1,0;0.5;0,1,737.7795,1.0,877.0,-152.0,1,1
457,738.5334,-27120.7429,-26382.2095,27122.1935,739.9840,0.3001,740.2841,0.3668,275,0,-275,0.0029,0;0.5;0,0,739.9055,0.0,-968.0,-226.0,1,1
458,740.6509,-27122.8605,-26382.2095,27123.5941,741.3846,0.3001,741.6847,0.3668,-275,0.05,275,0.0582,1;0;0,1,741.3061,0.0,-958.0,-226.0,1,0
459,742.0515,-27124.2610,-26382.2095,27124.9780,742.7685,0.3001,743.0686,0.3668,275,0.05,-275,0.0735,1;0;0,0,742.6899,1.0,871.0,-162.0,1,0
460,743.4354,-27125.6449,-26382.2095,27127.2789,745.0694,0.3001,745.3695,0.3668,275,0.0167,-275,0.0177,1;0;0,0,744.9908,1.0,870.0,-160.0,1,0
461,745.7363,-27127.9459,-26382.2095,27128.5628,746.3532,0.3001,746.6534,0.3668,275,0.45,-275,1,0;0.5;0,0,746.2664,0.0,-953.0,-205.0,1,1
462,747.0202,-27129.2297,-26382.2095,27130.0467,747.8372,0.3001,748.1373,0.3668,275,0,-275,0.0671,0;0.5;0,0,747.7587,0.0,-995.0,-207.0,1,1
463,748.5041,-27130.7137,-26382.2095,27131.7808,749.5712,0.3001,749.8713,0.3668,-275,0.05,275,0.0582,1;0;0,1,749.4925,0.0,-984.0,-201.0,1,0
464,750.2381,-27132.4477,-26382.2095,27133.3147,751.1052,0.3001,751.4053,0.3668,275,0,-275,0.001,1;0;0,0,751.0268,1.0,881.0,-154.0,1,0
465,751.7721,-27133.9816,-26382.2095,27134.4485,752.2390,0.3001,752.5391,0.3668,-275,0.0088,275,0.2009,0;0.5;0,1,752.1520,1.0,880.0,-153.0,1,1
466,752.9059,-27135.1154,-26382.2095,27137.0996,754.8900,0.3001,755.1902,0.3668,275,0.05,-275,0.0529,1;0;0,0,754.8115,1.0,879.0,-157.0,1,0
467,755.5570,-27137.7665,-26382.2095,27138.3501,756.1405,0.3001,756.4407,0.3668,275,0.05,-275,0.2421,0;0.5;0,0,756.0620,0.0,-990.0,-179.0,1,1
468,756.8075,-27139.0170,-26382.2095,27139.8173,757.6078,0.3001,757.9079,0.3668,275,0.45,-275,0.4735,1;0;0,0,757.5293,1.0,876.0,-153.0,1,0
469,758.2747,-27140.4843,-26382.2095,27141.1345,758.9250,0.3001,759.2251,0.3668,275,0.0088,-275,0.2009,0;0.5;0,0,758.8466,0.0,-997.0,-196.0,1,1
470,759.5919,-27141.8015,-26382.2095,27142.5184,760.3089,0.3001,760.6090,0.3668,-275,0.45,275,0.4735,0;0.5;0,1,760.2305,1.0,879.0,-152.0,1,1
471,760.9758,-27143.1854,-26382.2095,27143.7523,761.5427,0.3001,761.8428,0.3668,-275,0.45,275,0.5171,0;0.5;0,1,761.4559,1.0,894.0,-150.0,1,1
472,762.2097,-27144.4192,-26382.2095,27145.0361,762.8266,0.3001,763.1267,0.3668,275,0.45,-275,1,0;0.5;0,0,762.7480,0.0,-989.0,-193.0,1,1
473,763.4935,-27145.7031,-26382.2095,27146.8369,764.6273,0.3001,764.9274,0.3668,-275,0.0088,275,0.0323,0;0.5;0,1,764.5488,1.0,898.0,-153.0,1,1
474,765.2942,-27147.5038,-26382.2095,27148.1040,765.8945,0.3001,766.1946,0.3668,275,0.2,-275,1,0;0.5;0,0,765.8077,0.0,-975.0,-181.0,1,1
475,766.5614,-27148.7710,-26382.2095,27149.8547,767.6452,0.3001,767.9453,0.3668,275,0.05,-275,0.0529,1;0;0,0,767.5584,1.0,898.0,-152.0,1,0
476,768.3121,-27150.5217,-26382.2095,27151.1719,768.9624,0.3001,769.2625,0.3668,-275,0.2,275,0.75,0;0.5;0,1,768.8754,1.0,889.0,-148.0,1,1
477,769.6293,-27151.8389,-26382.2095,27152.8226,770.6131,0.3001,770.9132,0.3668,275,0.0167,-275,0.0838,1;0;0,0,770.5265,1.0,902.0,-152.0,1,0
478,771.2800,-27153.4895,-26382.2095,27154.0398,771.8302,0.3001,772.1303,0.3668,275,0,-275,0.0082,0;0.5;0,0,771.7433,0.0,-982.0,-182.0,1,1
479,772.4972,-27154.7067,-26382.2095,27155.8072,773.5976,0.3001,773.8977,0.3668,-275,0.0088,275,0.0098,0;0.5;0,1,773.5108,1.0,903.0,-155.0,1,1
480,774.2645,-27156.4741,-26382.2095,27157.1577,774.9482,0.3001,775.2483,0.3668,-275,0.0167,275,0.0838,0;0.5;0,1,774.8613,1.0,893.0,-151.0,1,1
481,775.6151,-27157.8246,-26382.2095,27158.5082,776.2987,0.3001,776.5988,0.3668,-275,0.05,275,0.0735,0;0.5;0,1,776.2203,1.0,904.0,-148.0,1,1
482,776.9656,-27159.1752,-26382.2095,27159.9255,777.7159,0.3001,778.0161,0.3668,275,0,-275,0.001,1;0;0,0,777.6375,1.0,911.0,-145.0,1,0
483,778.3829,-27160.5924,-26382.2095,27161.3094,779.0998,0.3001,779.4000,0.3668,-275,0.0088,275,0.0759,1;0;0,1,779.0213,0.0,-994.0,-177.0,1,0
484,779.7668,-27161.9763,-26382.2095,27163.9271,781.7176,0.3001,782.0177,0.3668,-275,0.0088,275,0.0759,1;0;0,1,781.6390,0.0,-998.0,-174.0,1,0
485,782.3845,-27164.5940,-26382.2095,27165.1109,782.9014,0.3001,783.2015,0.3668,-275,0,275,0.0029,0;0.5;0,1,782.8227,1.0,903.0,-148.0,1,1
486,783.5683,-27165.7779,-26382.2095,27166.8116,784.6021,0.3001,784.9022,0.3668,-275,0.0088,275,0.017,1;0;0,1,784.5152,0.0,-993.0,-179.0,1,0
487,785.2690,-27167.4785,-26382.2095,27168.1121,785.9026,0.3001,786.2027,0.3668,-275,0.0167,275,0.0249,0;0.5;0,1,785.8157,1.0,910.0,-142.0,1,1
488,786.5695,-27168.7791,-26382.2095,27169.6127,787.4032,0.3001,787.7033,0.3668,-275,0.45,275,0.6421,0;0.5;0,1,787.3163,1.0,915.0,-129.0,1,1
489,788.0701,-27170.2797,-26382.2095,27171.1134,788.9038,0.3001,789.2039,0.3668,275,0.2,-275,0.2671,1;0;0,0,788.8253,1.0,911.0,-134.0,1,0
490,789.5707,-27171.7803,-26382.2095,27172.4306,790.2210,0.3001,790.5211,0.3668,275,0.0088,-275,0.0759,0;0.5;0,0,790.1427,0.0,-994.0,-173.0,1,1
491,790.8879,-27173.0975,-26382.2095,27173.8478,791.6383,0.3001,791.9384,0.3668,-275,0.45,275,0.4735,0;0.5;0,1,791.5513,1.0,904.0,-135.0,1,1
492,792.3052,-27174.5147,-26382.2095,27175.2317,793.0221,0.3001,793.3223,0.3668,-275,0.45,275,1,0;0.5;0,1,792.9436,1.0,901.0,-129.0,1,1
493,793.6891,-27175.8986,-26382.2095,27176.5322,794.3227,0.3001,794.6228,0.3668,-275,0.05,275,0.6,0;0.5;0,1,794.2357,1.0,908.0,-133.0,1,1
494,794.9896,-27177.1991,-26382.2095,27177.7494,795.5398,0.3001,795.8400,0.3668,275,0.45,-275,1,0;0.5;0,0,795.4530,0.0,-994.0,-181.0,1,1
495,796.2068,-27178.4163,-26382.2095,27179.0332,796.8237,0.3001,797.1238,0.3668,-275,0.2,275,0.2235,0;0.5;0,1,796.7367,1.0,898.0,-139.0,1,1
496,797.4906,-27179.7002,-26382.2095,27180.8173,798.6077,0.3001,798.9079,0.3668,-275,0.0167,275,0.0177,1;0;0,1,798.5208,0.0,-999.0,-177.0,1,0
497,799.2747,-27181.4842,-26382.2095,27181.8677,799.6582,0.3001,799.9583,0.3668,-275,0.45,275,0.5171,0;0.5;0,1,799.5713,1.0,901.0,-138.0,1,1
498,800.3251,-27182.5346,-26382.2095,27183.5684,801.3589,0.3001,801.6590,0.3668,275,0,-275,0.0235,1;0;0,0,801.2721,1.0,903.0,-137.0,1,0
499,802.0258,-27184.2353,-26382.2095,27186.6697,804.4601,0.3001,804.7602,0.3668,275,0.0088,-275,0.0323,0;0.5;0,0,804.3814,0.0,-991.0,-174.0,1,1
500,805.1270,-27187.3366,-26382.2095,27189.1373,806.9278,0.3001,807.2279,0.3668,-275,0.0167,275,0.0838,0;0.5;0,1,806.8492,1.0,912.0,-128.0,1,1
501,807.5947,-27189.8043,-26382.2095,27190.9881,808.7785,0.3001,809.0786,0.3668,275,0,-275,0.0235,1;0;0,0,808.7000,1.0,920.0,-121.0,1,0
502,809.4455,-27191.6550,-26382.2095,27191.8884,809.6789,0.3001,809.9790,0.3668,275,0.45,-275,1,0;0.5;0,0,809.5922,0.0,-1011.0,-156.0,1,1
503,810.3458,-27192.5554,-26382.2095,27193.0722,810.8627,0.3001,811.1628,0.3668,-275,0.05,275,0.0529,0;0.5;0,1,810.7841,1.0,910.0,-125.0,1,1
504,811.5296,-27193.7392,-26382.2095,27194.5228,812.3133,0.3001,812.6134,0.3668,-275,0,275,0.0029,1;0;0,1,812.2347,0.0,-1004.0,-162.0,1,0
505,812.9802,-27195.1898,-26382.2095,27195.7066,813.4971,0.3001,813.7972,0.3668,275,0.2,-275,1,0;0.5;0,0,813.4184,0.0,-985.0,-171.0,1,1
506,814.1640,-27196.3736,-26382.2095,27197.2573,815.0477,0.3001,815.3479,0.3668,275,0.0088,-275,0.0098,1;0;0,0,814.9692,1.0,914.0,-109.0,1,0
507,815.7147,-27197.9242,-26382.2095,27198.5078,816.2982,0.3001,816.5984,0.3668,-275,0.05,275,0.1171,0;0.5;0,1,816.2198,1.0,924.0,-102.0,1,1
508,816.9652,-27199.1747,-26382.2095,27202.3593,820.1498,0.3001,820.4499,0.3668,-275,0,275,0.001,0;0.5;0,1,820.0712,1.0,913.0,-119.0,1,1
509,820.8167,-27203.0263,-26382.2095,27203.6265,821.4170,0.3001,821.7171,0.3668,275,0,-275,0.0671,0;0.5;0,0,821.3385,0.0,-1015.0,-153.0,1,1
510,822.0839,-27204.2935,-26382.2095,27205.0104,822.8009,0.3001,823.1010,0.3668,275,0.0088,-275,0.017,0;0.5;0,0,822.7139,0.0,-1022.0,-153.0,1,1
511,823.4678,-27205.6773,-26382.2095,27206.3610,824.1514,0.3001,824.4515,0.3668,275,0,-275,0.0235,0;0.5;0,0,824.0646,0.0,-1032.0,-151.0,1,1
512,824.8184,-27207.0279,-26382.2095,27207.5781,825.3686,0.3001,825.6687,0.3668,275,0.0167,-275,0.2088,0;0.5;0,0,825.2903,0.0,-1028.0,-148.0,1,1
513,826.0355,-27208.2451,-26382.2095,27208.7619,826.5524,0.3001,826.8525,0.3668,275,0.0088,-275,0.2009,0;0.5;0,0,826.4738,0.0,-1034.0,-140.0,1,1
514,827.2193,-27209.4289,-26382.2095,27210.3126,828.1030,0.3001,828.4031,0.3668,275,0.0088,-275,0.0117,0;0.5;0,0,828.0164,0.0,-1031.0,-140.0,1,1
515,828.7700,-27210.9795,-26382.2095,27211.5964,829.3869,0.3001,829.6870,0.3668,-275,0,275,0.0235,1;0;0,1,829.3084,0.0,-1050.0,-129.0,1,0
516,830.0538,-27212.2633,-26382.2095,27212.7135,830.5040,0.3001,830.8041,0.3668,-275,0,275,0.1921,0;0.5;0,1,830.4171,1.0,912.0,-120.0,1,1
517,831.1709,-27213.3805,-26382.2095,27213.9640,831.7545,0.3001,832.0546,0.3668,-275,0.2,275,0.2671,0;0.5;0,1,831.6761,1.0,918.0,-116.0,1,1
518,832.4214,-27214.6310,-26382.2095,27215.1645,832.9550,0.3001,833.2551,0.3668,-275,0,275,0.1921,0;0.5;0,1,832.8681,1.0,913.0,-115.0,1,1
519,833.6219,-27215.8315,-26382.2095,27216.4150,834.2055,0.3001,834.5056,0.3668,-275,0.45,275,0.5171,0;0.5;0,1,834.1186,1.0,908.0,-119.0,1,1
520,834.8724,-27217.0820,-26382.2095,27217.8489,835.6394,0.3001,835.9395,0.3668,-275,0.0088,275,0.017,0;0.5;0,1,835.5608,1.0,915.0,-109.0,1,1
521,836.3063,-27218.5159,-26382.2095,27218.8827,836.6732,0.3001,836.9733,0.3668,275,0.0088,-275,0.017,1;0;0,0,836.5862,1.0,918.0,-110.0,1,0
522,837.3401,-27219.5496,-26382.2095,27220.0665,837.8570,0.3001,838.1571,0.3668,275,0,-275,0.1921,0;0.5;0,0,837.7700,0.0,-1037.0,-124.0,1,1
523,838.5239,-27220.7334,-26382.2095,27221.3670,839.1575,0.3001,839.4576,0.3668,-275,0.0088,275,0.2009,0;0.5;0,1,839.0708,1.0,907.0,-118.0,1,1
524,839.8244,-27222.0340,-26382.2095,27222.6342,840.4247,0.3001,840.7248,0.3668,-275,0.0088,275,0.0759,0;0.5;0,1,840.3378,1.0,904.0,-119.0,1,1
525,841.0916,-27223.3011,-26382.2095,27224.6017,842.3921,0.3001,842.6923,0.3668,-275,0,275,0.001,1;0;0,1,842.3135,0.0,-1038.0,-129.0,1,0
526,843.0591,-27225.2686,-26382.2095,27225.8689,843.6593,0.3001,843.9594,0.3668,275,0.05,-275,0.0735,1;0;0,0,843.5725,1.0,929.0,-78.0,1,0
527,844.3263,-27226.5358,-26382.2095,27227.2527,845.0432,0.3001,845.3433,0.3668,275,0.45,-275,0.5171,1;0;0,0,844.9647,1.0,926.0,-81.0,1,0
528,845.7101,-27227.9197,-26382.2095,27228.4866,846.2770,0.3001,846.5772,0.3668,-275,0,275,0.1921,0;0.5;0,1,846.1903,1.0,908.0,-58.0,1,1
529,846.9440,-27229.1535,-26382.2095,27229.7538,847.5442,0.3001,847.8443,0.3668,-275,0.0088,275,0.0759,0;0.5;0,1,847.4659,1.0,936.0,-62.0,1,1
530,848.2112,-27230.4207,-26382.2095,27230.8709,848.6613,0.3001,848.9615,0.3668,-275,0,275,0.0235,0;0.5;0,1,848.5829,1.0,913.0,-86.0,1,1
531,849.3283,-27231.5378,-26382.2095,27232.5215,850.3120,0.3001,850.6121,0.3668,275,0,-275,0.0235,1;0;0,0,850.2252,1.0,939.0,-81.0,1,0
532,850.9789,-27233.1885,-26382.2095,27233.8221,851.6125,0.3001,851.9127,0.3668,-275,0.05,275,0.0735,0;0.5;0,1,851.5339,1.0,922.0,-76.0,1,1
533,852.2795,-27234.4890,-26382.2095,27235.9396,853.7301,0.3001,854.0302,0.3668,275,0,-275,0.0235,1;0;0,0,853.6514,1.0,938.0,-86.0,1,0
534,854.3970,-27236.6065,-26382.2095,27237.3402,855.1306,0.3001,855.4307,0.3668,-275,0.0167,275,0.0402,0;0.5;0,1,855.0438,1.0,932.0,-88.0,1,1
535,855.7976,-27238.0071,-26382.2095,27238.5740,856.3645,0.3001,856.6646,0.3668,275,0.2,-275,0.75,0;0.5;0,0,856.2859,0.0,-1008.0,-148.0,1,1
536,857.0314,-27239.2409,-26382.2095,27239.8745,857.6650,0.3001,857.9651,0.3668,275,0.0167,-275,0.0838,0;0.5;0,0,857.5782,0.0,-1021.0,-140.0,1,1
537,858.3319,-27240.5415,-26382.2095,27241.0083,858.7988,0.3001,859.0989,0.3668,275,0.0167,-275,0.0249,1;0;0,0,858.7120,1.0,936.0,-96.0,1,0
538,859.4657,-27241.6753,-26382.2095,27242.2088,859.9993,0.3001,860.2994,0.3668,-275,0.0167,275,0.0402,1;0;0,1,859.9125,0.0,-1024.0,-138.0,1,0
539,860.6662,-27242.8757,-26382.2095,27243.4760,861.2664,0.3001,861.5666,0.3668,275,0.05,-275,0.2421,0;0.5;0,0,861.1795,0.0,-1007.0,-145.0,1,1
540,861.9334,-27244.1429,-26382.2095,27245.7436,863.5340,0.3001,863.8341,0.3668,275,0,-275,0.0671,0;0.5;0,0,863.4554,0.0,-1008.0,-155.0,1,1
541,864.2010,-27246.4105,-26382.2095,27247.2108,865.0013,0.3001,865.3014,0.3668,-275,0.45,275,0.4735,0;0.5;0,1,864.9144,1.0,933.0,-87.0,1,1
542,865.6682,-27247.8778,-26382.2095,27248.5447,866.3352,0.3001,866.6353,0.3668,275,0.0088,-275,0.2009,0;0.5;0,0,866.2566,0.0,-1007.0,-154.0,1,1
543,867.0021,-27249.2116,-26382.2095,27249.8786,867.6690,0.3001,867.9692,0.3668,-275,0.05,275,0.2421,0;0.5;0,1,867.5905,1.0,923.0,-70.0,1,1
544,868.3360,-27250.5455,-26382.2095,27251.8627,869.6532,0.3001,869.9533,0.3668,275,0.05,-275,0.0582,1;0;0,0,869.5747,1.0,928.0,-76.0,1,0
545,870.3201,-27252.5296,-26382.2095,27253.1966,870.9870,0.3001,871.2872,0.3668,-275,0,275,0.0671,0;0.5;0,1,870.9002,1.0,935.0,-57.0,1,1
546,871.6540,-27253.8635,-26382.2095,27254.6138,872.4043,0.3001,872.7044,0.3668,-275,0.2,275,1,0;0.5;0,1,872.3175,1.0,929.0,-56.0,1,1
547,873.0712,-27255.2808,-26382.2095,27255.8643,873.6548,0.3001,873.9549,0.3668,-275,0.2,275,0.3921,0;0.5;0,1,873.5681,1.0,941.0,-53.0,1,1
548,874.3217,-27256.5313,-26382.2095,27257.3649,875.1554,0.3001,875.4555,0.3668,275,0.0088,-275,0.017,1;0;0,0,875.0685,1.0,938.0,-58.0,1,0
549,875.8223,-27258.0319,-26382.2095,27259.5492,877.3396,0.3001,877.6397,0.3668,-275,0.0088,275,0.017,1;0;0,1,877.2611,0.0,-1027.0,-105.0,1,0
550,878.0066,-27260.2161,-26382.2095,27260.9331,878.7235,0.3001,879.0236,0.3668,275,0.45,-275,0.4582,1;0;0,0,878.6366,1.0,916.0,-75.0,1,0
551,879.3904,-27261.6000,-26382.2095,27262.1669,879.9573,0.3001,880.2575,0.3668,275,0.0088,-275,0.2009,0;0.5;0,0,879.8789,0.0,-1021.0,-104.0,1,1
552,880.6243,-27262.8338,-26382.2095,27263.6008,881.3913,0.3001,881.6914,0.3668,-275,0.2,275,0.2235,0;0.5;0,1,881.3045,1.0,927.0,-69.0,1,1
553,882.0582,-27264.2677,-26382.2095,27264.9180,882.7085,0.3001,883.0086,0.3668,-275,0.05,275,0.0529,0;0.5;0,1,882.6299,1.0,925.0,-69.0,1,1
554,883.3754,-27265.5849,-26382.2095,27266.3853,884.1757,0.3001,884.4758,0.3668,275,0,-275,0.0029,1;0;0,0,884.0973,1.0,942.0,-65.0,1,0
555,884.8427,-27267.0522,-26382.2095,27267.6858,885.4762,0.3001,885.7764,0.3668,-275,0.05,275,0.0735,0;0.5;0,1,885.3895,1.0,908.0,-74.0,1,1
556,886.1432,-27268.3527,-26382.2095,27269.0197,886.8101,0.3001,887.1102,0.3668,275,0.05,-275,0.0529,1;0;0,0,886.7315,1.0,924.0,-71.0,1,0
557,887.4771,-27269.6866,-26382.2095,27270.5203,888.3107,0.3001,888.6108,0.3668,275,0.0167,-275,0.0196,0;0.5;0,0,888.2238,0.0,-1024.0,-108.0,1,1
558,888.9777,-27271.1872,-26382.2095,27271.9709,889.7613,0.3001,890.0614,0.3668,275,0.45,-275,0.4735,1;0;0,0,889.6828,1.0,932.0,-65.0,1,0
559,890.4282,-27272.6378,-26382.2095,27273.1713,890.9618,0.3001,891.2619,0.3668,275,0,-275,0.1921,0;0.5;0,0,890.8749,0.0,-1033.0,-105.0,1,1
560,891.6287,-27273.8383,-26382.2095,27274.4552,892.2456,0.3001,892.5458,0.3668,275,0.05,-275,0.2421,0;0.5;0,0,892.1672,0.0,-1030.0,-104.0,1,1